SpectraSuite Data File
++++++++++++++++++++++++++++++++++++
Date: Fri Nov 29 15:15:20 CET 2024
User: student
Dark Spectrum Present: No
Reference Spectrum Present: No
Number of Sampled Component Spectra: 1
Spectrometers: HR4C155
Integration Time (usec): 100000 (HR4C155)
Spectra Averaged: 1 (HR4C155)
Boxcar Smoothing: 0 (HR4C155)
Correct for Electrical Dark: No (HR4C155)
Strobe/Lamp Enabled: No (HR4C155)
Correct for Detector Non-linearity: No (HR4C155)
Correct for Stray Light: No (HR4C155)
Number of Pixels in Processed Spectrum: 3648
>>>>>Begin Processed Spectral Data<<<<<
195.39	750.00
195.66	750.00
195.93	750.00
196.20	705.00
196.46	759.00
196.73	873.00
197.00	886.00
197.27	882.00
197.54	926.00
197.81	897.00
198.08	905.00
198.35	946.00
198.61	944.00
198.88	907.00
199.15	894.00
199.42	914.00
199.69	930.00
199.96	903.00
200.23	919.00
200.49	924.00
200.76	951.00
201.03	931.00
201.30	904.00
201.57	970.00
201.84	984.00
202.11	935.00
202.38	955.00
202.64	968.00
202.91	981.00
203.18	930.00
203.45	974.00
203.72	1066.00
203.99	957.00
204.25	965.00
204.52	962.00
204.79	983.00
205.06	979.00
205.33	917.00
205.60	939.00
205.87	974.00
206.13	994.00
206.40	947.00
206.67	947.00
206.94	974.00
207.21	976.00
207.48	945.00
207.75	931.00
208.01	995.00
208.28	989.00
208.55	932.00
208.82	938.00
209.09	945.00
209.36	987.00
209.62	955.00
209.89	959.00
210.16	983.00
210.43	1011.00
210.70	935.00
210.97	954.00
211.23	981.00
211.50	993.00
211.77	946.00
212.04	950.00
212.31	969.00
212.58	999.00
212.84	954.00
213.11	955.00
213.38	929.00
213.65	974.00
213.92	947.00
214.18	949.00
214.45	1006.00
214.72	1005.00
214.99	918.00
215.26	946.00
215.53	962.00
215.79	986.00
216.06	957.00
216.33	960.00
216.60	958.00
216.87	983.00
217.13	918.00
217.40	939.00
217.67	979.00
217.94	1009.00
218.21	932.00
218.48	984.00
218.74	1037.00
219.01	994.00
219.28	928.00
219.55	936.00
219.82	982.00
220.08	984.00
220.35	945.00
220.62	937.00
220.89	990.00
221.16	1005.00
221.42	964.00
221.69	965.00
221.96	986.00
222.23	986.00
222.50	974.00
222.76	976.00
223.03	971.00
223.30	953.00
223.57	930.00
223.84	924.00
224.10	932.00
224.37	984.00
224.64	937.00
224.91	955.00
225.18	990.00
225.44	1004.00
225.71	945.00
225.98	974.00
226.25	987.00
226.51	996.00
226.78	946.00
227.05	953.00
227.32	985.00
227.59	978.00
227.85	968.00
228.12	958.00
228.39	996.00
228.66	992.00
228.92	982.00
229.19	968.00
229.46	972.00
229.73	937.00
230.00	919.00
230.26	966.00
230.53	1004.00
230.80	969.00
231.07	907.00
231.33	911.00
231.60	959.00
231.87	970.00
232.14	970.00
232.41	1009.00
232.67	981.00
232.94	974.00
233.21	918.00
233.48	942.00
233.74	961.00
234.01	969.00
234.28	941.00
234.55	951.00
234.81	937.00
235.08	995.00
235.35	940.00
235.62	932.00
235.88	962.00
236.15	987.00
236.42	965.00
236.69	961.00
236.95	985.00
237.22	951.00
237.49	944.00
237.76	945.00
238.02	988.00
238.29	998.00
238.56	956.00
238.83	951.00
239.09	949.00
239.36	988.00
239.63	944.00
239.90	962.00
240.16	1014.00
240.43	1037.00
240.70	956.00
240.97	953.00
241.23	949.00
241.50	978.00
241.77	942.00
242.04	960.00
242.30	940.00
242.57	965.00
242.84	927.00
243.11	936.00
243.37	931.00
243.64	1003.00
243.91	956.00
244.18	943.00
244.44	937.00
244.71	954.00
244.98	942.00
245.24	961.00
245.51	970.00
245.78	1002.00
246.05	930.00
246.31	934.00
246.58	979.00
246.85	970.00
247.12	947.00
247.38	974.00
247.65	962.00
247.92	970.00
248.18	932.00
248.45	930.00
248.72	950.00
248.99	965.00
249.25	927.00
249.52	949.00
249.79	972.00
250.05	971.00
250.32	945.00
250.59	958.00
250.86	960.00
251.12	957.00
251.39	925.00
251.66	949.00
251.92	999.00
252.19	1002.00
252.46	930.00
252.73	957.00
252.99	985.00
253.26	996.00
253.53	943.00
253.79	973.00
254.06	982.00
254.33	932.00
254.60	905.00
254.86	932.00
255.13	972.00
255.40	991.00
255.66	952.00
255.93	947.00
256.20	971.00
256.46	994.00
256.73	935.00
257.00	957.00
257.26	964.00
257.53	972.00
257.80	959.00
258.07	978.00
258.33	996.00
258.60	997.00
258.87	926.00
259.13	942.00
259.40	938.00
259.67	998.00
259.93	952.00
260.20	968.00
260.47	985.00
260.73	977.00
261.00	939.00
261.27	963.00
261.53	995.00
261.80	965.00
262.07	934.00
262.34	960.00
262.60	928.00
262.87	966.00
263.14	918.00
263.40	963.00
263.67	941.00
263.94	935.00
264.20	931.00
264.47	918.00
264.74	938.00
265.00	953.00
265.27	918.00
265.54	942.00
265.80	986.00
266.07	999.00
266.34	910.00
266.60	935.00
266.87	970.00
267.14	989.00
267.40	936.00
267.67	927.00
267.94	970.00
268.20	950.00
268.47	913.00
268.74	926.00
269.00	958.00
269.27	941.00
269.54	898.00
269.80	926.00
270.07	955.00
270.33	923.00
270.60	930.00
270.87	969.00
271.13	965.00
271.40	969.00
271.67	897.00
271.93	905.00
272.20	947.00
272.47	920.00
272.73	897.00
273.00	931.00
273.27	947.00
273.53	991.00
273.80	951.00
274.07	920.00
274.33	947.00
274.60	967.00
274.86	938.00
275.13	944.00
275.40	938.00
275.66	995.00
275.93	946.00
276.20	914.00
276.46	919.00
276.73	933.00
277.00	933.00
277.26	951.00
277.53	979.00
277.79	960.00
278.06	936.00
278.33	981.00
278.59	987.00
278.86	943.00
279.13	942.00
279.39	951.00
279.66	995.00
279.93	1001.00
280.19	929.00
280.46	929.00
280.72	947.00
280.99	986.00
281.26	939.00
281.52	936.00
281.79	953.00
282.05	962.00
282.32	939.00
282.59	941.00
282.85	976.00
283.12	965.00
283.39	934.00
283.65	950.00
283.92	960.00
284.18	974.00
284.45	935.00
284.72	944.00
284.98	959.00
285.25	952.00
285.51	964.00
285.78	964.00
286.05	945.00
286.31	974.00
286.58	906.00
286.84	930.00
287.11	953.00
287.38	976.00
287.64	964.00
287.91	937.00
288.17	973.00
288.44	965.00
288.71	911.00
288.97	949.00
289.24	986.00
289.50	961.00
289.77	958.00
290.04	909.00
290.30	938.00
290.57	969.00
290.83	914.00
291.10	924.00
291.37	976.00
291.63	949.00
291.90	947.00
292.16	964.00
292.43	963.00
292.70	942.00
292.96	906.00
293.23	917.00
293.49	935.00
293.76	957.00
294.02	923.00
294.29	942.00
294.56	979.00
294.82	970.00
295.09	936.00
295.35	929.00
295.62	982.00
295.89	1007.00
296.15	918.00
296.42	913.00
296.68	926.00
296.95	937.00
297.21	948.00
297.48	942.00
297.75	951.00
298.01	984.00
298.28	942.00
298.54	955.00
298.81	965.00
299.07	968.00
299.34	911.00
299.61	940.00
299.87	979.00
300.14	946.00
300.40	960.00
300.67	956.00
300.93	966.00
301.20	1009.00
301.46	928.00
301.73	955.00
302.00	965.00
302.26	945.00
302.53	945.00
302.79	953.00
303.06	966.00
303.32	1000.00
303.59	941.00
303.85	926.00
304.12	945.00
304.39	954.00
304.65	929.00
304.92	945.00
305.18	964.00
305.45	985.00
305.71	952.00
305.98	950.00
306.24	940.00
306.51	933.00
306.77	929.00
307.04	932.00
307.31	982.00
307.57	984.00
307.84	926.00
308.10	934.00
308.37	927.00
308.63	958.00
308.90	943.00
309.16	943.00
309.43	978.00
309.69	946.00
309.96	943.00
310.22	946.00
310.49	955.00
310.76	963.00
311.02	897.00
311.29	921.00
311.55	945.00
311.82	965.00
312.08	941.00
312.35	965.00
312.61	963.00
312.88	989.00
313.14	936.00
313.41	916.00
313.67	927.00
313.94	965.00
314.20	942.00
314.47	967.00
314.73	950.00
315.00	950.00
315.26	926.00
315.53	969.00
315.79	965.00
316.06	974.00
316.32	934.00
316.59	955.00
316.85	969.00
317.12	953.00
317.39	902.00
317.65	923.00
317.92	943.00
318.18	961.00
318.45	938.00
318.71	980.00
318.98	989.00
319.24	961.00
319.51	950.00
319.77	934.00
320.04	962.00
320.30	965.00
320.57	933.00
320.83	926.00
321.10	917.00
321.36	940.00
321.63	913.00
321.89	939.00
322.16	979.00
322.42	950.00
322.69	921.00
322.95	932.00
323.22	963.00
323.48	974.00
323.75	925.00
324.01	944.00
324.28	963.00
324.54	971.00
324.80	946.00
325.07	954.00
325.33	973.00
325.60	933.00
325.86	890.00
326.13	938.00
326.39	948.00
326.66	940.00
326.92	890.00
327.19	941.00
327.45	987.00
327.72	991.00
327.98	947.00
328.25	922.00
328.51	962.00
328.78	953.00
329.04	921.00
329.31	958.00
329.57	969.00
329.84	941.00
330.10	920.00
330.37	938.00
330.63	987.00
330.89	1002.00
331.16	935.00
331.42	930.00
331.69	979.00
331.95	955.00
332.22	954.00
332.48	994.00
332.75	974.00
333.01	929.00
333.28	921.00
333.54	938.00
333.81	942.00
334.07	962.00
334.34	941.00
334.60	951.00
334.86	992.00
335.13	1000.00
335.39	946.00
335.66	945.00
335.92	964.00
336.19	964.00
336.45	915.00
336.72	934.00
336.98	932.00
337.24	955.00
337.51	918.00
337.77	923.00
338.04	955.00
338.30	972.00
338.57	912.00
338.83	936.00
339.10	974.00
339.36	960.00
339.63	918.00
339.89	902.00
340.15	948.00
340.42	989.00
340.68	950.00
340.95	941.00
341.21	952.00
341.48	951.00
341.74	907.00
342.00	916.00
342.27	968.00
342.53	963.00
342.80	920.00
343.06	942.00
343.33	949.00
343.59	974.00
343.85	932.00
344.12	947.00
344.38	1009.00
344.65	986.00
344.91	929.00
345.18	933.00
345.44	941.00
345.70	959.00
345.97	900.00
346.23	930.00
346.50	965.00
346.76	955.00
347.03	939.00
347.29	943.00
347.55	956.00
347.82	950.00
348.08	902.00
348.35	933.00
348.61	1002.00
348.87	979.00
349.14	923.00
349.40	926.00
349.67	977.00
349.93	962.00
350.20	931.00
350.46	954.00
350.72	969.00
350.99	944.00
351.25	922.00
351.52	915.00
351.78	927.00
352.04	945.00
352.31	931.00
352.57	926.00
352.84	935.00
353.10	950.00
353.36	951.00
353.63	935.00
353.89	947.00
354.16	976.00
354.42	957.00
354.68	948.00
354.95	976.00
355.21	986.00
355.48	930.00
355.74	966.00
356.00	983.00
356.27	992.00
356.53	930.00
356.80	917.00
357.06	958.00
357.32	972.00
357.59	943.00
357.85	956.00
358.11	982.00
358.38	947.00
358.64	930.00
358.91	934.00
359.17	949.00
359.43	981.00
359.70	958.00
359.96	950.00
360.22	978.00
360.49	948.00
360.75	940.00
361.02	923.00
361.28	935.00
361.54	949.00
361.81	909.00
362.07	942.00
362.33	941.00
362.60	944.00
362.86	920.00
363.13	935.00
363.39	969.00
363.65	984.00
363.92	893.00
364.18	904.00
364.44	949.00
364.71	977.00
364.97	937.00
365.24	924.00
365.50	963.00
365.76	988.00
366.03	937.00
366.29	957.00
366.55	959.00
366.82	938.00
367.08	903.00
367.34	939.00
367.61	975.00
367.87	972.00
368.13	940.00
368.40	941.00
368.66	1003.00
368.93	971.00
369.19	904.00
369.45	922.00
369.72	951.00
369.98	952.00
370.24	901.00
370.51	905.00
370.77	960.00
371.03	963.00
371.30	934.00
371.56	959.00
371.82	983.00
372.09	957.00
372.35	954.00
372.61	953.00
372.88	954.00
373.14	966.00
373.40	938.00
373.67	947.00
373.93	967.00
374.19	968.00
374.46	924.00
374.72	924.00
374.98	952.00
375.25	945.00
375.51	956.00
375.77	966.00
376.04	968.00
376.30	967.00
376.56	921.00
376.83	931.00
377.09	972.00
377.35	962.00
377.62	938.00
377.88	929.00
378.14	938.00
378.41	969.00
378.67	943.00
378.93	926.00
379.20	950.00
379.46	947.00
379.72	920.00
379.99	918.00
380.25	941.00
380.51	924.00
380.77	920.00
381.04	946.00
381.30	970.00
381.56	982.00
381.83	949.00
382.09	940.00
382.35	954.00
382.62	972.00
382.88	942.00
383.14	942.00
383.41	944.00
383.67	922.00
383.93	941.00
384.20	944.00
384.46	977.00
384.72	998.00
384.98	923.00
385.25	945.00
385.51	976.00
385.77	969.00
386.04	923.00
386.30	912.00
386.56	948.00
386.82	991.00
387.09	927.00
387.35	964.00
387.61	1031.00
387.88	972.00
388.14	924.00
388.40	935.00
388.67	952.00
388.93	942.00
389.19	919.00
389.45	923.00
389.72	956.00
389.98	973.00
390.24	940.00
390.51	942.00
390.77	979.00
391.03	992.00
391.29	918.00
391.56	924.00
391.82	958.00
392.08	1009.00
392.35	916.00
392.61	913.00
392.87	962.00
393.13	977.00
393.40	911.00
393.66	931.00
393.92	948.00
394.18	968.00
394.45	913.00
394.71	927.00
394.97	937.00
395.24	932.00
395.50	923.00
395.76	970.00
396.02	971.00
396.29	977.00
396.55	910.00
396.81	882.00
397.07	929.00
397.34	926.00
397.60	900.00
397.86	904.00
398.12	946.00
398.39	984.00
398.65	926.00
398.91	939.00
399.17	969.00
399.44	903.00
399.70	890.00
399.96	926.00
400.22	943.00
400.49	955.00
400.75	937.00
401.01	937.00
401.27	955.00
401.54	978.00
401.80	920.00
402.06	920.00
402.32	983.00
402.59	949.00
402.85	916.00
403.11	910.00
403.37	923.00
403.64	958.00
403.90	927.00
404.16	946.00
404.42	950.00
404.69	934.00
404.95	945.00
405.21	902.00
405.47	933.00
405.74	970.00
406.00	932.00
406.26	908.00
406.52	957.00
406.79	970.00
407.05	918.00
407.31	933.00
407.57	932.00
407.83	965.00
408.10	904.00
408.36	921.00
408.62	946.00
408.88	935.00
409.15	916.00
409.41	891.00
409.67	921.00
409.93	962.00
410.20	926.00
410.46	920.00
410.72	951.00
410.98	936.00
411.24	916.00
411.51	924.00
411.77	928.00
412.03	954.00
412.29	955.00
412.55	972.00
412.82	934.00
413.08	969.00
413.34	948.00
413.60	942.00
413.87	943.00
414.13	950.00
414.39	914.00
414.65	939.00
414.91	942.00
415.18	942.00
415.44	911.00
415.70	908.00
415.96	934.00
416.22	946.00
416.49	924.00
416.75	929.00
417.01	961.00
417.27	946.00
417.53	915.00
417.80	943.00
418.06	959.00
418.32	963.00
418.58	918.00
418.84	922.00
419.11	954.00
419.37	968.00
419.63	905.00
419.89	917.00
420.15	958.00
420.42	948.00
420.68	915.00
420.94	932.00
421.20	954.00
421.46	972.00
421.72	949.00
421.99	953.00
422.25	965.00
422.51	966.00
422.77	935.00
423.03	940.00
423.30	937.00
423.56	963.00
423.82	951.00
424.08	969.00
424.34	982.00
424.60	934.00
424.87	921.00
425.13	911.00
425.39	947.00
425.65	950.00
425.91	910.00
426.18	934.00
426.44	946.00
426.70	925.00
426.96	888.00
427.22	897.00
427.48	932.00
427.75	936.00
428.01	897.00
428.27	927.00
428.53	956.00
428.79	930.00
429.05	914.00
429.32	922.00
429.58	968.00
429.84	931.00
430.10	947.00
430.36	940.00
430.62	981.00
430.88	974.00
431.15	932.00
431.41	935.00
431.67	953.00
431.93	926.00
432.19	889.00
432.45	926.00
432.72	954.00
432.98	949.00
433.24	953.00
433.50	1041.00
433.76	949.00
434.02	948.00
434.28	912.00
434.55	930.00
434.81	962.00
435.07	960.00
435.33	889.00
435.59	899.00
435.85	923.00
436.11	955.00
436.38	903.00
436.64	918.00
436.90	942.00
437.16	942.00
437.42	909.00
437.68	924.00
437.94	973.00
438.21	980.00
438.47	959.00
438.73	934.00
438.99	950.00
439.25	958.00
439.51	912.00
439.77	911.00
440.03	937.00
440.30	968.00
440.56	935.00
440.82	952.00
441.08	963.00
441.34	946.00
441.60	916.00
441.86	934.00
442.12	956.00
442.39	950.00
442.65	919.00
442.91	917.00
443.17	934.00
443.43	940.00
443.69	946.00
443.95	914.00
444.21	924.00
444.47	954.00
444.74	908.00
445.00	929.00
445.26	947.00
445.52	962.00
445.78	929.00
446.04	928.00
446.30	982.00
446.56	972.00
446.82	919.00
447.09	920.00
447.35	953.00
447.61	958.00
447.87	925.00
448.13	925.00
448.39	979.00
448.65	963.00
448.91	894.00
449.17	909.00
449.43	924.00
449.70	945.00
449.96	922.00
450.22	921.00
450.48	946.00
450.74	975.00
451.00	936.00
451.26	945.00
451.52	944.00
451.78	937.00
452.04	926.00
452.31	956.00
452.57	964.00
452.83	946.00
453.09	928.00
453.35	928.00
453.61	962.00
453.87	950.00
454.13	950.00
454.39	953.00
454.65	1005.00
454.91	980.00
455.17	929.00
455.44	923.00
455.70	959.00
455.96	962.00
456.22	913.00
456.48	920.00
456.74	934.00
457.00	906.00
457.26	868.00
457.52	910.00
457.78	925.00
458.04	947.00
458.30	903.00
458.56	944.00
458.82	933.00
459.09	915.00
459.35	880.00
459.61	893.00
459.87	957.00
460.13	962.00
460.39	921.00
460.65	906.00
460.91	963.00
461.17	949.00
461.43	911.00
461.69	909.00
461.95	938.00
462.21	931.00
462.47	928.00
462.73	962.00
462.99	968.00
463.26	944.00
463.52	910.00
463.78	894.00
464.04	927.00
464.30	927.00
464.56	893.00
464.82	939.00
465.08	974.00
465.34	982.00
465.60	933.00
465.86	916.00
466.12	920.00
466.38	896.00
466.64	891.00
466.90	917.00
467.16	934.00
467.42	961.00
467.68	903.00
467.94	925.00
468.20	976.00
468.46	939.00
468.72	926.00
468.98	932.00
469.25	949.00
469.51	908.00
469.77	931.00
470.03	935.00
470.29	935.00
470.55	954.00
470.81	916.00
471.07	916.00
471.33	951.00
471.59	967.00
471.85	925.00
472.11	936.00
472.37	952.00
472.63	946.00
472.89	956.00
473.15	934.00
473.41	941.00
473.67	923.00
473.93	891.00
474.19	888.00
474.45	910.00
474.71	937.00
474.97	905.00
475.23	903.00
475.49	918.00
475.75	923.00
476.01	921.00
476.27	966.00
476.53	982.00
476.79	969.00
477.05	921.00
477.31	906.00
477.57	945.00
477.83	954.00
478.09	887.00
478.35	935.00
478.61	979.00
478.87	949.00
479.13	903.00
479.39	946.00
479.65	965.00
479.91	968.00
480.17	927.00
480.43	958.00
480.69	936.00
480.95	957.00
481.21	923.00
481.47	924.00
481.73	941.00
481.99	921.00
482.25	900.00
482.51	907.00
482.77	974.00
483.03	952.00
483.29	930.00
483.55	922.00
483.81	971.00
484.07	963.00
484.33	906.00
484.59	923.00
484.85	962.00
485.11	957.00
485.37	913.00
485.63	911.00
485.89	922.00
486.15	914.00
486.41	889.00
486.67	905.00
486.93	936.00
487.19	925.00
487.45	914.00
487.71	915.00
487.97	962.00
488.23	950.00
488.49	897.00
488.75	892.00
489.01	933.00
489.27	959.00
489.53	917.00
489.79	921.00
490.05	943.00
490.31	975.00
490.57	963.00
490.83	980.00
491.08	934.00
491.34	915.00
491.60	894.00
491.86	935.00
492.12	971.00
492.38	965.00
492.64	903.00
492.90	902.00
493.16	950.00
493.42	917.00
493.68	903.00
493.94	937.00
494.20	937.00
494.46	958.00
494.72	925.00
494.98	922.00
495.24	921.00
495.50	947.00
495.76	942.00
496.02	936.00
496.28	969.00
496.54	969.00
496.80	922.00
497.05	889.00
497.31	958.00
497.57	964.00
497.83	916.00
498.09	945.00
498.35	969.00
498.61	956.00
498.87	926.00
499.13	922.00
499.39	941.00
499.65	915.00
499.91	925.00
500.17	936.00
500.43	1023.00
500.69	1021.00
500.95	910.00
501.20	956.00
501.46	980.00
501.72	957.00
501.98	942.00
502.24	947.00
502.50	982.00
502.76	947.00
503.02	914.00
503.28	931.00
503.54	979.00
503.80	970.00
504.06	955.00
504.32	963.00
504.58	961.00
504.83	958.00
505.09	912.00
505.35	944.00
505.61	917.00
505.87	925.00
506.13	918.00
506.39	917.00
506.65	961.00
506.91	985.00
507.17	926.00
507.43	909.00
507.68	924.00
507.94	964.00
508.20	919.00
508.46	918.00
508.72	974.00
508.98	975.00
509.24	920.00
509.50	942.00
509.76	925.00
510.02	925.00
510.28	906.00
510.53	935.00
510.79	966.00
511.05	942.00
511.31	926.00
511.57	926.00
511.83	948.00
512.09	958.00
512.35	929.00
512.61	948.00
512.87	946.00
513.12	958.00
513.38	903.00
513.64	926.00
513.90	948.00
514.16	994.00
514.42	946.00
514.68	929.00
514.94	961.00
515.20	963.00
515.45	929.00
515.71	909.00
515.97	936.00
516.23	927.00
516.49	911.00
516.75	931.00
517.01	946.00
517.27	932.00
517.53	912.00
517.78	924.00
518.04	939.00
518.30	920.00
518.56	910.00
518.82	946.00
519.08	969.00
519.34	928.00
519.60	914.00
519.85	925.00
520.11	932.00
520.37	929.00
520.63	922.00
520.89	942.00
521.15	960.00
521.41	945.00
521.66	925.00
521.92	926.00
522.18	953.00
522.44	956.00
522.70	926.00
522.96	893.00
523.22	953.00
523.48	956.00
523.73	907.00
523.99	905.00
524.25	977.00
524.51	974.00
524.77	922.00
525.03	912.00
525.29	950.00
525.54	960.00
525.80	914.00
526.06	930.00
526.32	947.00
526.58	939.00
526.84	909.00
527.09	904.00
527.35	936.00
527.61	941.00
527.87	905.00
528.13	941.00
528.39	927.00
528.65	921.00
528.90	876.00
529.16	917.00
529.42	917.00
529.68	916.00
529.94	896.00
530.20	923.00
530.45	922.00
530.71	948.00
530.97	917.00
531.23	924.00
531.49	935.00
531.75	949.00
532.00	944.00
532.26	914.00
532.52	961.00
532.78	936.00
533.04	914.00
533.30	896.00
533.55	923.00
533.81	925.00
534.07	886.00
534.33	908.00
534.59	947.00
534.85	939.00
535.10	900.00
535.36	905.00
535.62	952.00
535.88	937.00
536.14	898.00
536.39	893.00
536.65	955.00
536.91	952.00
537.17	898.00
537.43	913.00
537.69	956.00
537.94	940.00
538.20	898.00
538.46	911.00
538.72	932.00
538.98	959.00
539.23	916.00
539.49	894.00
539.75	960.00
540.01	944.00
540.27	910.00
540.52	957.00
540.78	952.00
541.04	964.00
541.30	901.00
541.56	890.00
541.81	968.00
542.07	1028.00
542.33	929.00
542.59	916.00
542.85	936.00
543.10	941.00
543.36	910.00
543.62	931.00
543.88	931.00
544.14	923.00
544.39	901.00
544.65	926.00
544.91	968.00
545.17	946.00
545.43	918.00
545.68	920.00
545.94	949.00
546.20	959.00
546.46	921.00
546.71	915.00
546.97	938.00
547.23	954.00
547.49	919.00
547.75	907.00
548.00	944.00
548.26	956.00
548.52	903.00
548.78	917.00
549.03	908.00
549.29	915.00
549.55	880.00
549.81	920.00
550.07	946.00
550.32	936.00
550.58	900.00
550.84	949.00
551.10	926.00
551.35	914.00
551.61	903.00
551.87	955.00
552.13	961.00
552.39	914.00
552.64	889.00
552.90	908.00
553.16	917.00
553.42	934.00
553.67	902.00
553.93	908.00
554.19	954.00
554.45	963.00
554.70	924.00
554.96	921.00
555.22	940.00
555.48	959.00
555.73	910.00
555.99	935.00
556.25	970.00
556.51	946.00
556.76	909.00
557.02	927.00
557.28	954.00
557.54	933.00
557.79	901.00
558.05	938.00
558.31	923.00
558.57	943.00
558.82	903.00
559.08	883.00
559.34	903.00
559.60	941.00
559.85	926.00
560.11	927.00
560.37	928.00
560.63	917.00
560.88	900.00
561.14	916.00
561.40	960.00
561.66	918.00
561.91	916.00
562.17	923.00
562.43	949.00
562.68	962.00
562.94	940.00
563.20	950.00
563.46	944.00
563.71	964.00
563.97	921.00
564.23	928.00
564.49	951.00
564.74	946.00
565.00	901.00
565.26	916.00
565.51	941.00
565.77	927.00
566.03	894.00
566.29	923.00
566.54	917.00
566.80	930.00
567.06	899.00
567.31	935.00
567.57	960.00
567.83	933.00
568.09	930.00
568.34	931.00
568.60	920.00
568.86	951.00
569.11	938.00
569.37	928.00
569.63	970.00
569.89	966.00
570.14	885.00
570.40	894.00
570.66	930.00
570.91	920.00
571.17	895.00
571.43	929.00
571.69	953.00
571.94	975.00
572.20	901.00
572.46	913.00
572.71	949.00
572.97	932.00
573.23	883.00
573.48	902.00
573.74	944.00
574.00	962.00
574.26	904.00
574.51	924.00
574.77	947.00
575.03	950.00
575.28	934.00
575.54	905.00
575.80	917.00
576.05	948.00
576.31	891.00
576.57	894.00
576.82	925.00
577.08	937.00
577.34	909.00
577.59	932.00
577.85	976.00
578.11	928.00
578.37	906.00
578.62	916.00
578.88	966.00
579.14	976.00
579.39	944.00
579.65	933.00
579.91	931.00
580.16	955.00
580.42	927.00
580.68	922.00
580.93	962.00
581.19	952.00
581.45	900.00
581.70	934.00
581.96	938.00
582.22	957.00
582.47	932.00
582.73	932.00
582.99	951.00
583.24	956.00
583.50	899.00
583.76	918.00
584.01	954.00
584.27	965.00
584.53	916.00
584.78	924.00
585.04	932.00
585.30	947.00
585.55	941.00
585.81	928.00
586.07	978.00
586.32	958.00
586.58	914.00
586.83	916.00
587.09	952.00
587.35	952.00
587.60	921.00
587.86	926.00
588.12	939.00
588.37	966.00
588.63	931.00
588.89	939.00
589.14	971.00
589.40	970.00
589.66	931.00
589.91	943.00
590.17	942.00
590.43	910.00
590.68	880.00
590.94	916.00
591.19	941.00
591.45	937.00
591.71	900.00
591.96	937.00
592.22	966.00
592.48	964.00
592.73	911.00
592.99	915.00
593.25	943.00
593.50	953.00
593.76	906.00
594.01	924.00
594.27	958.00
594.53	946.00
594.78	903.00
595.04	927.00
595.30	946.00
595.55	948.00
595.81	891.00
596.06	947.00
596.32	977.00
596.58	977.00
596.83	926.00
597.09	954.00
597.35	966.00
597.60	923.00
597.86	891.00
598.11	928.00
598.37	970.00
598.63	959.00
598.88	927.00
599.14	953.00
599.39	983.00
599.65	967.00
599.91	905.00
600.16	946.00
600.42	977.00
600.67	986.00
600.93	945.00
601.19	983.00
601.44	1023.00
601.70	990.00
601.95	945.00
602.21	955.00
602.47	952.00
602.72	969.00
602.98	954.00
603.23	977.00
603.49	1007.00
603.75	1001.00
604.00	949.00
604.26	951.00
604.51	966.00
604.77	988.00
605.03	948.00
605.28	944.00
605.54	1004.00
605.79	1019.00
606.05	944.00
606.31	976.00
606.56	1009.00
606.82	1021.00
607.07	999.00
607.33	1013.00
607.59	1031.00
607.84	1005.00
608.10	971.00
608.35	988.00
608.61	1023.00
608.86	1029.00
609.12	1016.00
609.38	1035.00
609.63	1052.00
609.89	1034.00
610.14	982.00
610.40	1028.00
610.65	1034.00
610.91	1036.00
611.17	1025.00
611.42	1042.00
611.68	1074.00
611.93	1092.00
612.19	1072.00
612.44	1056.00
612.70	1065.00
612.96	1049.00
613.21	1044.00
613.47	1063.00
613.72	1074.00
613.98	1091.00
614.23	1072.00
614.49	1107.00
614.75	1141.00
615.00	1122.00
615.26	1115.00
615.51	1103.00
615.77	1129.00
616.02	1136.00
616.28	1111.00
616.53	1154.00
616.79	1180.00
617.05	1160.00
617.30	1144.00
617.56	1164.00
617.81	1211.00
618.07	1194.00
618.32	1209.00
618.58	1269.00
618.83	1282.00
619.09	1288.00
619.34	1241.00
619.60	1256.00
619.86	1280.00
620.11	1328.00
620.37	1306.00
620.62	1367.00
620.88	1391.00
621.13	1386.00
621.39	1352.00
621.64	1401.00
621.90	1503.00
622.15	1507.00
622.41	1443.00
622.66	1498.00
622.92	1568.00
623.18	1612.00
623.43	1547.00
623.69	1563.00
623.94	1594.00
624.20	1651.00
624.45	1692.00
624.71	1751.00
624.96	1828.00
625.22	1922.00
625.47	1927.00
625.73	1997.00
625.98	2115.00
626.24	2220.00
626.49	2252.00
626.75	2304.00
627.00	2380.00
627.26	2440.00
627.51	2517.00
627.77	2584.00
628.02	2719.00
628.28	2772.00
628.53	2655.00
628.79	2711.00
629.05	3056.00
629.30	3413.00
629.56	3545.00
629.81	3596.00
630.07	3613.00
630.32	3653.00
630.58	3846.00
630.83	3918.00
631.09	4078.00
631.34	4104.00
631.60	4085.00
631.85	4165.00
632.11	4547.00
632.36	4948.00
632.62	5191.00
632.87	5499.00
633.13	5510.00
633.38	5282.00
633.64	5639.00
633.89	5585.00
634.15	5014.00
634.40	4918.00
634.66	5284.00
634.91	5833.00
635.17	6110.00
635.42	6638.00
635.68	6768.00
635.93	6429.00
636.18	6813.00
636.44	6910.00
636.69	6638.00
636.95	6747.00
637.20	6665.00
637.46	6750.00
637.71	6970.00
637.97	6791.00
638.22	6835.00
638.48	6659.00
638.73	6162.00
638.99	5408.00
639.24	5224.00
639.50	4851.00
639.75	5307.00
640.01	6034.00
640.26	5940.00
640.52	5516.00
640.77	4941.00
641.03	4305.00
641.28	3810.00
641.54	3639.00
641.79	3650.00
642.04	3787.00
642.30	3602.00
642.55	3327.00
642.81	3154.00
643.06	2935.00
643.32	2685.00
643.57	2659.00
643.83	2667.00
644.08	2588.00
644.34	2530.00
644.59	2516.00
644.85	2331.00
645.10	2278.00
645.35	2217.00
645.61	2093.00
645.86	1941.00
646.12	1826.00
646.37	1795.00
646.63	1794.00
646.88	1721.00
647.14	1635.00
647.39	1572.00
647.65	1601.00
647.90	1499.00
648.15	1438.00
648.41	1395.00
648.66	1382.00
648.92	1341.00
649.17	1366.00
649.43	1340.00
649.68	1298.00
649.94	1296.00
650.19	1269.00
650.44	1243.00
650.70	1244.00
650.95	1181.00
651.21	1191.00
651.46	1225.00
651.72	1221.00
651.97	1171.00
652.23	1136.00
652.48	1118.00
652.73	1119.00
652.99	1088.00
653.24	1078.00
653.50	1096.00
653.75	1095.00
654.01	1071.00
654.26	1095.00
654.51	1106.00
654.77	1128.00
655.02	1103.00
655.28	1050.00
655.53	1058.00
655.79	1087.00
656.04	1056.00
656.29	1042.00
656.55	1052.00
656.80	1051.00
657.06	989.00
657.31	984.00
657.56	992.00
657.82	979.00
658.07	981.00
658.33	994.00
658.58	1009.00
658.84	1013.00
659.09	968.00
659.34	977.00
659.60	991.00
659.85	1005.00
660.11	970.00
660.36	993.00
660.61	1001.00
660.87	961.00
661.12	933.00
661.38	946.00
661.63	953.00
661.88	969.00
662.14	983.00
662.39	977.00
662.65	1007.00
662.90	1018.00
663.15	937.00
663.41	965.00
663.66	986.00
663.92	1010.00
664.17	944.00
664.42	954.00
664.68	976.00
664.93	945.00
665.19	917.00
665.44	927.00
665.69	932.00
665.95	954.00
666.20	926.00
666.45	947.00
666.71	954.00
666.96	961.00
667.22	896.00
667.47	918.00
667.72	938.00
667.98	958.00
668.23	934.00
668.49	969.00
668.74	986.00
668.99	969.00
669.25	923.00
669.50	932.00
669.75	944.00
670.01	952.00
670.26	892.00
670.52	930.00
670.77	982.00
671.02	938.00
671.28	914.00
671.53	949.00
671.78	964.00
672.04	948.00
672.29	930.00
672.54	919.00
672.80	963.00
673.05	962.00
673.31	925.00
673.56	969.00
673.81	984.00
674.07	952.00
674.32	923.00
674.57	922.00
674.83	942.00
675.08	933.00
675.33	917.00
675.59	940.00
675.84	973.00
676.09	937.00
676.35	897.00
676.60	920.00
676.86	943.00
677.11	977.00
677.36	918.00
677.62	934.00
677.87	977.00
678.12	1006.00
678.38	917.00
678.63	908.00
678.88	958.00
679.14	979.00
679.39	897.00
679.64	940.00
679.90	930.00
680.15	952.00
680.40	933.00
680.66	932.00
680.91	947.00
681.16	926.00
681.42	897.00
681.67	903.00
681.92	927.00
682.18	972.00
682.43	908.00
682.68	907.00
682.94	917.00
683.19	933.00
683.44	904.00
683.70	926.00
683.95	941.00
684.20	945.00
684.46	935.00
684.71	943.00
684.96	918.00
685.22	943.00
685.47	923.00
685.72	945.00
685.98	946.00
686.23	897.00
686.48	903.00
686.74	933.00
686.99	968.00
687.24	942.00
687.50	904.00
687.75	918.00
688.00	921.00
688.25	937.00
688.51	926.00
688.76	950.00
689.01	916.00
689.27	926.00
689.52	888.00
689.77	925.00
690.03	916.00
690.28	938.00
690.53	919.00
690.79	914.00
691.04	938.00
691.29	948.00
691.54	887.00
691.80	914.00
692.05	937.00
692.30	946.00
692.56	907.00
692.81	936.00
693.06	923.00
693.32	921.00
693.57	903.00
693.82	948.00
694.07	960.00
694.33	953.00
694.58	894.00
694.83	926.00
695.09	920.00
695.34	953.00
695.59	922.00
695.84	913.00
696.10	952.00
696.35	942.00
696.60	880.00
696.86	900.00
697.11	933.00
697.36	940.00
697.61	899.00
697.87	933.00
698.12	918.00
698.37	917.00
698.63	914.00
698.88	913.00
699.13	925.00
699.38	928.00
699.64	878.00
699.89	920.00
700.14	924.00
700.39	924.00
700.65	919.00
700.90	936.00
701.15	937.00
701.40	961.00
701.66	913.00
701.91	932.00
702.16	910.00
702.42	918.00
702.67	886.00
702.92	893.00
703.17	917.00
703.43	934.00
703.68	933.00
703.93	950.00
704.18	969.00
704.44	945.00
704.69	928.00
704.94	945.00
705.19	933.00
705.45	953.00
705.70	933.00
705.95	900.00
706.20	912.00
706.46	947.00
706.71	913.00
706.96	921.00
707.21	937.00
707.47	928.00
707.72	930.00
707.97	936.00
708.22	970.00
708.48	969.00
708.73	901.00
708.98	900.00
709.23	932.00
709.49	936.00
709.74	894.00
709.99	910.00
710.24	918.00
710.50	920.00
710.75	922.00
711.00	957.00
711.25	961.00
711.50	934.00
711.76	895.00
712.01	908.00
712.26	913.00
712.51	935.00
712.77	893.00
713.02	914.00
713.27	903.00
713.52	938.00
713.78	922.00
714.03	921.00
714.28	902.00
714.53	936.00
714.78	904.00
715.04	949.00
715.29	945.00
715.54	938.00
715.79	899.00
716.05	946.00
716.30	954.00
716.55	966.00
716.80	918.00
717.05	938.00
717.31	948.00
717.56	954.00
717.81	909.00
718.06	905.00
718.31	909.00
718.57	939.00
718.82	901.00
719.07	939.00
719.32	929.00
719.57	952.00
719.83	917.00
720.08	920.00
720.33	919.00
720.58	908.00
720.83	870.00
721.09	958.00
721.34	949.00
721.59	957.00
721.84	903.00
722.09	914.00
722.35	948.00
722.60	940.00
722.85	908.00
723.10	926.00
723.35	923.00
723.61	933.00
723.86	950.00
724.11	948.00
724.36	922.00
724.61	915.00
724.87	912.00
725.12	910.00
725.37	907.00
725.62	892.00
725.87	896.00
726.12	907.00
726.38	903.00
726.63	929.00
726.88	915.00
727.13	949.00
727.38	941.00
727.64	953.00
727.89	902.00
728.14	905.00
728.39	899.00
728.64	927.00
728.89	903.00
729.15	947.00
729.40	963.00
729.65	963.00
729.90	896.00
730.15	916.00
730.40	920.00
730.66	929.00
730.91	911.00
731.16	929.00
731.41	917.00
731.66	930.00
731.91	904.00
732.17	941.00
732.42	952.00
732.67	936.00
732.92	901.00
733.17	941.00
733.42	936.00
733.68	931.00
733.93	900.00
734.18	938.00
734.43	923.00
734.68	934.00
734.93	909.00
735.18	922.00
735.44	925.00
735.69	927.00
735.94	878.00
736.19	922.00
736.44	920.00
736.69	989.00
736.95	912.00
737.20	939.00
737.45	945.00
737.70	932.00
737.95	925.00
738.20	944.00
738.45	940.00
738.70	925.00
738.96	909.00
739.21	940.00
739.46	940.00
739.71	955.00
739.96	917.00
740.21	961.00
740.46	1008.00
740.72	967.00
740.97	883.00
741.22	934.00
741.47	896.00
741.72	938.00
741.97	894.00
742.22	932.00
742.47	962.00
742.73	929.00
742.98	901.00
743.23	912.00
743.48	916.00
743.73	939.00
743.98	906.00
744.23	921.00
744.48	947.00
744.74	931.00
744.99	901.00
745.24	940.00
745.49	930.00
745.74	939.00
745.99	911.00
746.24	919.00
746.49	902.00
746.74	924.00
747.00	922.00
747.25	921.00
747.50	887.00
747.75	901.00
748.00	877.00
748.25	880.00
748.50	920.00
748.75	942.00
749.00	942.00
749.26	971.00
749.51	938.00
749.76	961.00
750.01	904.00
750.26	933.00
750.51	956.00
750.76	946.00
751.01	904.00
751.26	899.00
751.51	931.00
751.77	947.00
752.02	927.00
752.27	922.00
752.52	922.00
752.77	944.00
753.02	923.00
753.27	924.00
753.52	938.00
753.77	938.00
754.02	908.00
754.27	912.00
754.52	904.00
754.78	926.00
755.03	915.00
755.28	910.00
755.53	928.00
755.78	941.00
756.03	905.00
756.28	930.00
756.53	922.00
756.78	926.00
757.03	919.00
757.28	948.00
757.53	929.00
757.79	905.00
758.04	885.00
758.29	944.00
758.54	953.00
758.79	927.00
759.04	886.00
759.29	884.00
759.54	904.00
759.79	926.00
760.04	906.00
760.29	903.00
760.54	928.00
760.79	921.00
761.04	885.00
761.29	909.00
761.55	909.00
761.80	934.00
762.05	897.00
762.30	915.00
762.55	923.00
762.80	940.00
763.05	929.00
763.30	961.00
763.55	962.00
763.80	939.00
764.05	896.00
764.30	921.00
764.55	941.00
764.80	945.00
765.05	894.00
765.30	932.00
765.55	924.00
765.80	931.00
766.05	883.00
766.30	921.00
766.56	920.00
766.81	933.00
767.06	926.00
767.31	921.00
767.56	916.00
767.81	916.00
768.06	886.00
768.31	934.00
768.56	929.00
768.81	977.00
769.06	924.00
769.31	932.00
769.56	917.00
769.81	929.00
770.06	886.00
770.31	915.00
770.56	926.00
770.81	894.00
771.06	883.00
771.31	918.00
771.56	933.00
771.81	953.00
772.06	898.00
772.31	941.00
772.56	940.00
772.81	945.00
773.06	906.00
773.31	939.00
773.56	924.00
773.81	906.00
774.06	898.00
774.31	934.00
774.56	936.00
774.81	946.00
775.06	921.00
775.31	949.00
775.56	946.00
775.81	929.00
776.06	884.00
776.31	922.00
776.56	944.00
776.82	954.00
777.07	905.00
777.32	908.00
777.57	929.00
777.82	967.00
778.07	909.00
778.32	904.00
778.57	929.00
778.82	940.00
779.07	892.00
779.32	922.00
779.57	903.00
779.82	916.00
780.07	910.00
780.32	915.00
780.56	920.00
780.81	973.00
781.06	905.00
781.31	926.00
781.56	955.00
781.81	929.00
782.06	903.00
782.31	936.00
782.56	921.00
782.81	937.00
783.06	913.00
783.31	926.00
783.56	913.00
783.81	945.00
784.06	912.00
784.31	915.00
784.56	898.00
784.81	955.00
785.06	919.00
785.31	919.00
785.56	909.00
785.81	896.00
786.06	878.00
786.31	931.00
786.56	900.00
786.81	927.00
787.06	930.00
787.31	925.00
787.56	920.00
787.81	894.00
788.06	882.00
788.31	930.00
788.56	909.00
788.81	937.00
789.06	905.00
789.31	922.00
789.56	933.00
789.81	926.00
790.06	906.00
790.31	942.00
790.56	917.00
790.80	930.00
791.05	896.00
791.30	891.00
791.55	917.00
791.80	935.00
792.05	908.00
792.30	898.00
792.55	907.00
792.80	936.00
793.05	914.00
793.30	917.00
793.55	934.00
793.80	938.00
794.05	894.00
794.30	909.00
794.55	917.00
794.80	942.00
795.05	900.00
795.30	925.00
795.54	906.00
795.79	949.00
796.04	886.00
796.29	937.00
796.54	927.00
796.79	954.00
797.04	927.00
797.29	952.00
797.54	956.00
797.79	940.00
798.04	900.00
798.29	916.00
798.54	902.00
798.79	917.00
799.04	889.00
799.29	932.00
799.53	919.00
799.78	927.00
800.03	894.00
800.28	902.00
800.53	923.00
800.78	975.00
801.03	921.00
801.28	931.00
801.53	908.00
801.78	957.00
802.03	911.00
802.28	937.00
802.52	949.00
802.77	967.00
803.02	948.00
803.27	955.00
803.52	905.00
803.77	930.00
804.02	924.00
804.27	925.00
804.52	924.00
804.77	938.00
805.02	919.00
805.27	925.00
805.51	924.00
805.76	948.00
806.01	904.00
806.26	900.00
806.51	921.00
806.76	943.00
807.01	904.00
807.26	890.00
807.51	934.00
807.76	899.00
808.00	892.00
808.25	934.00
808.50	942.00
808.75	916.00
809.00	888.00
809.25	920.00
809.50	929.00
809.75	952.00
810.00	924.00
810.24	917.00
810.49	878.00
810.74	913.00
810.99	902.00
811.24	925.00
811.49	926.00
811.74	960.00
811.99	885.00
812.24	921.00
812.48	896.00
812.73	916.00
812.98	882.00
813.23	894.00
813.48	922.00
813.73	920.00
813.98	868.00
814.23	904.00
814.47	909.00
814.72	917.00
814.97	889.00
815.22	931.00
815.47	910.00
815.72	923.00
815.97	876.00
816.22	914.00
816.46	925.00
816.71	939.00
816.96	921.00
817.21	930.00
817.46	903.00
817.71	940.00
817.96	909.00
818.20	902.00
818.45	886.00
818.70	919.00
818.95	897.00
819.20	913.00
819.45	914.00
819.70	931.00
819.94	888.00
820.19	912.00
820.44	923.00
820.69	934.00
820.94	896.00
821.19	930.00
821.44	971.00
821.68	984.00
821.93	914.00
822.18	921.00
822.43	956.00
822.68	950.00
822.93	897.00
823.17	938.00
823.42	932.00
823.67	909.00
823.92	892.00
824.17	923.00
824.42	926.00
824.67	947.00
824.91	918.00
825.16	922.00
825.41	939.00
825.66	924.00
825.91	894.00
826.16	913.00
826.40	929.00
826.65	946.00
826.90	900.00
827.15	932.00
827.40	944.00
827.65	954.00
827.89	862.00
828.14	905.00
828.39	928.00
828.64	924.00
828.89	893.00
829.13	903.00
829.38	906.00
829.63	918.00
829.88	903.00
830.13	899.00
830.38	905.00
830.62	938.00
830.87	908.00
831.12	911.00
831.37	932.00
831.62	956.00
831.86	887.00
832.11	901.00
832.36	906.00
832.61	955.00
832.86	916.00
833.10	933.00
833.35	936.00
833.60	946.00
833.85	911.00
834.10	932.00
834.35	946.00
834.59	955.00
834.84	918.00
835.09	923.00
835.34	907.00
835.59	918.00
835.83	902.00
836.08	925.00
836.33	940.00
836.58	949.00
836.83	908.00
837.07	937.00
837.32	925.00
837.57	915.00
837.82	914.00
838.06	932.00
838.31	942.00
838.56	949.00
838.81	887.00
839.06	928.00
839.30	928.00
839.55	947.00
839.80	900.00
840.05	924.00
840.30	932.00
840.54	942.00
840.79	891.00
841.04	920.00
841.29	934.00
841.53	940.00
841.78	909.00
842.03	887.00
842.28	889.00
842.53	905.00
842.77	911.00
843.02	949.00
843.27	908.00
843.52	937.00
843.76	917.00
844.01	933.00
844.26	927.00
844.51	930.00
844.75	904.00
845.00	905.00
845.25	912.00
845.50	927.00
845.75	894.00
845.99	907.00
846.24	932.00
846.49	944.00
846.74	888.00
846.98	898.00
847.23	913.00
847.48	928.00
847.73	896.00
847.97	915.00
848.22	933.00
848.47	942.00
848.72	897.00
848.96	893.00
849.21	932.00
849.46	922.00
849.71	897.00
849.95	912.00
850.20	905.00
850.45	922.00
850.70	886.00
850.94	929.00
851.19	917.00
851.44	920.00
851.69	881.00
851.93	921.00
852.18	928.00
852.43	931.00
852.68	916.00
852.92	951.00
853.17	964.00
853.42	953.00
853.66	922.00
853.91	938.00
854.16	923.00
854.41	956.00
854.65	902.00
854.90	909.00
855.15	918.00
855.40	927.00
855.64	912.00
855.89	921.00
856.14	923.00
856.39	914.00
856.63	891.00
856.88	901.00
857.13	906.00
857.37	915.00
857.62	885.00
857.87	884.00
858.12	898.00
858.36	938.00
858.61	872.00
858.86	885.00
859.10	921.00
859.35	940.00
859.60	891.00
859.85	881.00
860.09	896.00
860.34	927.00
860.59	901.00
860.83	914.00
861.08	907.00
861.33	942.00
861.58	900.00
861.82	905.00
862.07	930.00
862.32	929.00
862.56	881.00
862.81	910.00
863.06	935.00
863.30	942.00
863.55	923.00
863.80	911.00
864.05	924.00
864.29	927.00
864.54	911.00
864.79	912.00
865.03	911.00
865.28	951.00
865.53	902.00
865.77	878.00
866.02	926.00
866.27	961.00
866.51	923.00
866.76	905.00
867.01	900.00
867.26	944.00
867.50	891.00
867.75	888.00
868.00	916.00
868.24	934.00
868.49	902.00
868.74	911.00
868.98	910.00
869.23	942.00
869.48	935.00
869.72	900.00
869.97	911.00
870.22	944.00
870.46	904.00
870.71	932.00
870.96	928.00
871.20	930.00
871.45	888.00
871.70	919.00
871.94	949.00
872.19	936.00
872.44	928.00
872.68	918.00
872.93	920.00
873.18	933.00
873.42	893.00
873.67	908.00
873.92	936.00
874.16	931.00
874.41	905.00
874.66	928.00
874.90	927.00
875.15	960.00
875.40	925.00
875.64	920.00
875.89	919.00
876.14	934.00
876.38	897.00
876.63	906.00
876.88	923.00
877.12	927.00
877.37	900.00
877.62	933.00
877.86	930.00
878.11	936.00
878.36	881.00
878.60	915.00
878.85	900.00
879.09	930.00
879.34	911.00
879.59	945.00
879.83	938.00
880.08	966.00
880.33	943.00
880.57	932.00
880.82	942.00
881.07	933.00
881.31	902.00
881.56	913.00
881.80	899.00
882.05	909.00
882.30	865.00
882.54	905.00
882.79	931.00
883.04	967.00
883.28	926.00
883.53	905.00
883.77	928.00
884.02	956.00
884.27	896.00
884.51	898.00
884.76	905.00
885.01	947.00
885.25	906.00
885.50	921.00
885.74	913.00
885.99	936.00
886.24	908.00
886.48	905.00
886.73	925.00
886.98	957.00
887.22	918.00
887.47	913.00
887.71	920.00
887.96	920.00
888.21	932.00
888.45	909.00
888.70	913.00
888.94	960.00
889.19	884.00
889.44	912.00
889.68	914.00
889.93	961.00
890.17	907.00
890.42	913.00
890.67	944.00
890.91	1028.00
891.16	912.00
891.40	900.00
891.65	896.00
891.90	935.00
892.14	870.00
892.39	931.00
892.63	936.00
892.88	954.00
893.13	921.00
893.37	898.00
893.62	903.00
893.86	944.00
894.11	913.00
894.36	927.00
894.60	905.00
894.85	916.00
895.09	908.00
895.34	941.00
895.59	934.00
895.83	919.00
896.08	885.00
896.32	896.00
896.57	938.00
896.81	941.00
897.06	898.00
897.31	906.00
897.55	940.00
897.80	927.00
898.04	878.00
898.29	906.00
898.53	932.00
898.78	946.00
899.03	917.00
899.27	908.00
899.52	946.00
899.76	945.00
900.01	897.00
900.25	919.00
900.50	931.00
900.75	939.00
900.99	909.00
901.24	985.00
901.48	929.00
901.73	951.00
901.97	914.00
902.22	946.00
902.47	953.00
902.71	933.00
902.96	891.00
903.20	895.00
903.45	940.00
903.69	946.00
903.94	916.00
904.18	901.00
904.43	922.00
904.68	937.00
904.92	874.00
905.17	910.00
905.41	931.00
905.66	954.00
905.90	949.00
906.15	923.00
906.39	920.00
906.64	924.00
906.88	882.00
907.13	900.00
907.38	941.00
907.62	962.00
907.87	902.00
908.11	926.00
908.36	912.00
908.60	927.00
908.85	885.00
909.09	912.00
909.34	930.00
909.58	927.00
909.83	917.00
910.07	925.00
910.32	968.00
910.56	980.00
910.81	896.00
911.06	925.00
911.30	934.00
911.55	930.00
911.79	902.00
912.04	902.00
912.28	902.00
912.53	919.00
912.77	928.00
913.02	938.00
913.26	927.00
913.51	917.00
913.75	905.00
914.00	920.00
914.24	926.00
914.49	923.00
914.73	897.00
914.98	949.00
915.22	964.00
915.47	934.00
915.71	902.00
915.96	929.00
916.20	928.00
916.45	901.00
916.69	886.00
916.94	903.00
917.18	918.00
917.43	917.00
917.67	906.00
917.92	898.00
918.16	927.00
918.41	945.00
918.65	896.00
918.90	898.00
919.14	889.00
919.39	921.00
919.63	895.00
919.88	896.00
920.12	924.00
920.37	929.00
920.61	891.00
920.86	937.00
921.10	950.00
921.35	912.00
921.59	884.00
921.84	911.00
922.08	936.00
922.33	951.00
922.57	884.00
922.82	894.00
923.06	916.00
923.31	936.00
923.55	880.00
923.80	901.00
924.04	908.00
924.29	936.00
924.53	893.00
924.78	920.00
925.02	909.00
925.27	920.00
925.51	912.00
925.76	930.00
926.00	922.00
926.25	916.00
926.49	886.00
926.73	927.00
926.98	940.00
927.22	954.00
927.47	905.00
927.71	915.00
927.96	945.00
928.20	938.00
928.45	924.00
928.69	963.00
928.94	949.00
929.18	927.00
929.43	928.00
929.67	936.00
929.91	932.00
930.16	939.00
930.40	888.00
930.65	891.00
930.89	919.00
931.14	955.00
931.38	909.00
931.63	925.00
931.87	938.00
932.12	931.00
932.36	876.00
932.60	905.00
932.85	946.00
933.09	921.00
933.34	886.00
933.58	930.00
933.83	921.00
934.07	936.00
934.32	907.00
934.56	916.00
934.80	940.00
935.05	948.00
935.29	909.00
935.54	920.00
935.78	944.00
936.03	940.00
936.27	892.00
936.52	897.00
936.76	913.00
937.00	923.00
937.25	909.00
937.49	922.00
937.74	950.00
937.98	943.00
938.23	884.00
938.47	889.00
938.71	919.00
938.96	929.00
939.20	890.00
939.45	885.00
939.69	916.00
939.94	957.00
940.18	888.00
940.42	934.00
940.67	944.00
940.91	931.00
941.16	911.00
941.40	883.00
941.64	904.00
941.89	952.00
942.13	893.00
942.38	924.00
942.62	993.00
942.87	975.00
943.11	926.00
943.35	923.00
943.60	919.00
943.84	961.00
944.09	932.00
944.33	949.00
944.57	933.00
944.82	918.00
945.06	892.00
945.31	933.00
945.55	907.00
945.79	941.00
946.04	904.00
946.28	917.00
946.53	937.00
946.77	940.00
947.01	891.00
947.26	940.00
947.50	918.00
947.75	932.00
947.99	917.00
948.23	927.00
948.48	912.00
948.72	916.00
948.97	903.00
949.21	921.00
949.45	921.00
949.70	944.00
949.94	913.00
950.18	941.00
950.43	931.00
950.67	927.00
950.92	897.00
951.16	909.00
951.40	922.00
951.65	926.00
951.89	908.00
952.13	901.00
952.38	933.00
952.62	930.00
952.87	907.00
953.11	934.00
953.35	958.00
953.60	936.00
953.84	852.00
954.08	881.00
954.33	926.00
954.57	916.00
954.82	894.00
955.06	889.00
955.30	907.00
955.55	932.00
955.79	892.00
956.03	906.00
956.28	909.00
956.52	930.00
956.76	920.00
957.01	949.00
957.25	925.00
957.50	928.00
957.74	899.00
957.98	918.00
958.23	954.00
958.47	932.00
958.71	914.00
958.96	934.00
959.20	952.00
959.44	919.00
959.69	897.00
959.93	915.00
960.17	923.00
960.42	954.00
960.66	926.00
960.90	939.00
961.15	932.00
961.39	929.00
961.64	899.00
961.88	899.00
962.12	939.00
962.37	940.00
962.61	910.00
962.85	909.00
963.10	938.00
963.34	925.00
963.58	904.00
963.83	930.00
964.07	926.00
964.31	932.00
964.56	918.00
964.80	893.00
965.04	918.00
965.29	909.00
965.53	889.00
965.77	897.00
966.02	879.00
966.26	903.00
966.50	895.00
966.74	927.00
966.99	958.00
967.23	947.00
967.47	920.00
967.72	931.00
967.96	925.00
968.20	932.00
968.45	887.00
968.69	892.00
968.93	908.00
969.18	930.00
969.42	925.00
969.66	936.00
969.91	915.00
970.15	944.00
970.39	898.00
970.64	921.00
970.88	942.00
971.12	944.00
971.36	924.00
971.61	915.00
971.85	934.00
972.09	934.00
972.34	889.00
972.58	921.00
972.82	935.00
973.07	943.00
973.31	884.00
973.55	926.00
973.79	937.00
974.04	946.00
974.28	924.00
974.52	918.00
974.77	896.00
975.01	953.00
975.25	905.00
975.50	921.00
975.74	925.00
975.98	934.00
976.22	909.00
976.47	899.00
976.71	906.00
976.95	929.00
977.20	917.00
977.44	912.00
977.68	927.00
977.92	948.00
978.17	904.00
978.41	904.00
978.65	939.00
978.90	920.00
979.14	912.00
979.38	902.00
979.62	902.00
979.87	913.00
980.11	892.00
980.35	907.00
980.59	928.00
980.84	946.00
981.08	897.00
981.32	904.00
981.57	942.00
981.81	944.00
982.05	907.00
982.29	900.00
982.54	928.00
982.78	946.00
983.02	896.00
983.26	911.00
983.51	952.00
983.75	958.00
983.99	892.00
984.23	931.00
984.48	936.00
984.72	952.00
984.96	890.00
985.20	909.00
985.45	982.00
985.69	948.00
985.93	918.00
986.17	949.00
986.42	943.00
986.66	928.00
986.90	876.00
987.14	884.00
987.39	910.00
987.63	908.00
987.87	892.00
988.11	898.00
988.36	932.00
988.60	959.00
988.84	935.00
989.08	904.00
989.33	939.00
989.57	945.00
989.81	886.00
990.05	880.00
990.30	892.00
990.54	913.00
990.78	912.00
991.02	905.00
991.27	926.00
991.51	926.00
991.75	894.00
991.99	913.00
992.23	908.00
992.48	913.00
992.72	893.00
992.96	905.00
993.20	892.00
993.45	924.00
993.69	921.00
993.93	901.00
994.17	954.00
994.41	938.00
994.66	877.00
994.90	912.00
995.14	960.00
995.38	937.00
995.63	903.00
995.87	909.00
996.11	951.00
996.35	940.00
996.59	900.00
996.84	909.00
997.08	944.00
997.32	929.00
997.56	915.00
997.80	879.00
998.05	886.00
998.29	913.00
998.53	882.00
998.77	911.00
999.01	932.00
999.26	934.00
999.50	904.00
999.74	906.00
999.98	935.00
1000.22	935.00
1000.47	884.00
1000.71	901.00
1000.95	934.00
1001.19	935.00
1001.43	924.00
1001.68	912.00
1001.92	902.00
1002.16	903.00
1002.40	893.00
1002.64	905.00
1002.89	918.00
1003.13	924.00
1003.37	905.00
1003.61	900.00
1003.85	934.00
1004.10	919.00
1004.34	905.00
1004.58	901.00
1004.82	916.00
1005.06	917.00
1005.30	903.00
1005.55	912.00
1005.79	935.00
1006.03	928.00
1006.27	918.00
1006.51	917.00
1006.76	925.00
1007.00	947.00
1007.24	916.00
1007.48	923.00
1007.72	952.00
1007.96	914.00
1008.21	903.00
1008.45	918.00
1008.69	936.00
1008.93	953.00
1009.17	916.00
1009.41	946.00
1009.66	954.00
1009.90	923.00
1010.14	900.00
1010.38	932.00
1010.62	941.00
1010.86	966.00
1011.10	897.00
1011.35	885.00
1011.59	907.00
1011.83	887.00
1012.07	870.00
1012.31	919.00
1012.55	902.00
1012.80	924.00
1013.04	927.00
1013.28	919.00
1013.52	926.00
1013.76	947.00
1014.00	880.00
1014.24	913.00
1014.49	931.00
1014.73	970.00
1014.97	941.00
1015.21	923.00
1015.45	948.00
1015.69	927.00
1015.93	928.00
1016.18	912.00
1016.42	948.00
1016.66	948.00
1016.90	886.00
1017.14	885.00
1017.38	904.00
1017.62	913.00
1017.87	908.00
1018.11	912.00
1018.35	920.00
1018.59	929.00
1018.83	884.00
1019.07	908.00
1019.31	945.00
1019.55	949.00
1019.80	914.00
1020.04	912.00
1020.28	922.00
1020.52	942.00
1020.76	896.00
1021.00	884.00
1021.24	908.00
1021.48	901.00
1021.73	903.00
1021.97	917.00
1022.21	923.00
1022.45	940.00
1022.69	907.00
1022.93	897.00
1023.17	917.00
1023.41	972.00
1023.65	917.00
1023.90	940.00
1024.14	957.00
1024.38	908.00
1024.62	878.00
1024.86	920.00
1025.10	938.00
1025.34	915.00
1025.58	895.00
1025.82	902.00
1026.07	946.00
1026.31	932.00
1026.55	877.00
1026.79	897.00
1027.03	915.00
1027.27	925.00
1027.51	899.00
1027.75	880.00
1027.99	908.00
1028.23	958.00
1028.47	922.00
1028.72	911.00
1028.96	930.00
1029.20	926.00
1029.44	914.00
1029.68	899.00
1029.92	913.00
1030.16	937.00
1030.40	868.00
1030.64	877.00
1030.88	905.00
1031.12	913.00
1031.37	861.00
1031.61	900.00
1031.85	941.00
1032.09	944.00
1032.33	913.00
1032.57	950.00
1032.81	920.00
1033.05	947.00
1033.29	920.00
1033.53	915.00
1033.77	982.00
1034.01	951.00
1034.25	916.00
1034.50	919.00
1034.74	927.00
1034.98	954.00
1035.22	909.00
1035.46	908.00
1035.70	957.00
1035.94	951.00
1036.18	918.00
1036.42	921.00
1036.66	913.00
1036.90	915.00
1037.14	889.00
1037.38	894.00
1037.62	929.00
1037.86	908.00
1038.10	902.00
1038.35	916.00
1038.59	948.00
1038.83	955.00
1039.07	919.00
1039.31	942.00
1039.55	911.00
1039.79	924.00
1040.03	878.00
1040.27	883.00
1040.51	933.00
1040.75	966.00
1040.99	915.00
1041.23	931.00
1041.47	918.00
1041.71	939.00
1041.95	906.00
1042.19	905.00
1042.43	953.00
1042.67	957.00
1042.91	918.00
1043.15	903.00
1043.39	960.00
1043.64	950.00
1043.88	901.00
1044.12	912.00
1044.36	968.00
1044.60	961.00
1044.84	909.00
1045.08	921.00
1045.32	921.00
1045.56	934.00
1045.80	921.00
1046.04	901.00
1046.28	948.00
1046.52	928.00
1046.76	890.00
1047.00	906.00
1047.24	938.00
1047.48	910.00
1047.72	902.00
1047.96	908.00
1048.20	948.00
1048.44	919.00
1048.68	881.00
1048.92	895.00
1049.16	921.00
1049.40	942.00
1049.64	926.00
1049.88	946.00
1050.12	955.00
1050.36	955.00
1050.60	910.00
1050.84	920.00
1051.08	925.00
1051.32	899.00
1051.56	910.00
1051.80	904.00
1052.04	927.00
1052.28	947.00
1052.52	884.00
1052.76	888.00
1053.00	918.00
1053.24	946.00
1053.48	901.00
1053.72	902.00
1053.96	927.00
1054.20	929.00
1054.44	904.00
1054.68	927.00
1054.92	939.00
1055.16	881.00
1055.40	888.00
1055.64	926.00
1055.88	957.00
1056.12	982.00
1056.36	881.00
1056.60	897.00
1056.84	946.00
1057.08	924.00
1057.32	906.00
1057.56	898.00
1057.80	924.00
1058.04	945.00
1058.28	902.00
1058.52	904.00
1058.76	954.00
1059.00	943.00
1059.24	885.00
1059.48	899.00
1059.72	939.00
1059.96	925.00
1060.20	920.00
1060.44	921.00
1060.68	951.00
1060.92	938.00
1061.16	878.00
1061.40	890.00
1061.64	919.00
1061.88	913.00
1062.11	894.00
1062.35	905.00
1062.59	917.00
1062.83	960.00
1063.07	918.00
1063.31	886.00
1063.55	901.00
1063.79	946.00
1064.03	908.00
1064.27	894.00
1064.51	928.00
1064.75	933.00
1064.99	908.00
1065.23	915.00
1065.47	914.00
1065.71	935.00
1065.95	915.00
1066.19	922.00
1066.43	941.00
1066.67	944.00
1066.91	935.00
1067.15	929.00
1067.38	918.00
1067.62	925.00
1067.86	894.00
1068.10	941.00
1068.34	988.00
1068.58	964.00
1068.82	891.00
1069.06	858.00
1069.30	916.00
1069.54	961.00
1069.78	932.00
1070.02	909.00
1070.26	933.00
1070.50	951.00
1070.74	905.00
1070.98	941.00
1071.21	947.00
1071.45	930.00
1071.69	897.00
1071.93	892.00
1072.17	929.00
1072.41	968.00
1072.65	944.00
1072.89	943.00
1073.13	942.00
1073.37	927.00
1073.61	900.00
1073.85	923.00
1074.09	902.00
1074.32	907.00
1074.56	908.00
1074.80	987.00
1075.04	1207.00
1075.28	1029.00
1075.52	922.00
1075.76	930.00
1076.00	955.00
1076.24	953.00
1076.48	934.00
1076.72	929.00
1076.96	951.00
1077.19	945.00
1077.43	898.00
1077.67	939.00
1077.91	932.00
1078.15	918.00
1078.39	915.00
1078.63	916.00
1078.87	925.00
1079.11	917.00
1079.35	902.00
1079.58	904.00
1079.82	917.00
1080.06	902.00
1080.30	894.00
1080.54	922.00
1080.78	955.00
1081.02	933.00
1081.26	900.00
1081.50	917.00
1081.74	925.00
1081.97	946.00
1082.21	910.00
1082.45	930.00
1082.69	926.00
1082.93	909.00
1083.17	915.00
1083.41	916.00
1083.65	967.00
1083.88	973.00
1084.12	924.00
1084.36	924.00
1084.60	942.00
1084.84	941.00
1085.08	884.00
1085.32	905.00
1085.56	955.00
1085.80	933.00
1086.03	901.00
1086.27	885.00
1086.51	928.00
1086.75	949.00
1086.99	896.00
1087.23	889.00
1087.47	931.00
1087.70	929.00
1087.94	900.00
1088.18	946.00
1088.42	977.00
1088.66	936.00
1088.90	885.00
1089.14	912.00
1089.38	912.00
1089.61	930.00
1089.85	888.00
1090.09	897.00
1090.33	961.00
1090.57	965.00
1090.81	882.00
1091.05	905.00
1091.28	934.00
1091.52	943.00
1091.76	897.00
1092.00	911.00
1092.24	927.00
1092.48	952.00
1092.71	891.00
1092.95	923.00
1093.19	937.00
1093.43	919.00
1093.67	897.00
1093.91	931.00
1094.15	936.00
1094.38	939.00
1094.62	884.00
1094.86	880.00
1095.10	915.00
1095.34	919.00
1095.58	900.00
1095.81	923.00
1096.05	962.00
1096.29	965.00
1096.53	886.00
1096.77	909.00
1097.01	920.00
1097.24	946.00
1097.48	898.00
1097.72	921.00
1097.96	944.00
1098.20	934.00
1098.44	888.00
1098.67	881.00
1098.91	936.00
1099.15	927.00
1099.39	884.00
1099.63	914.00
1099.86	941.00
1100.10	920.00
1100.34	911.00
1100.58	890.00
1100.82	913.00
1101.06	927.00
1101.29	883.00
1101.53	911.00
1101.77	918.00
1102.01	909.00
1102.25	897.00
1102.48	944.00
1102.72	982.00
1102.96	946.00
1103.20	883.00
1103.44	907.00
1103.67	915.00
1103.91	941.00
1104.15	887.00
1104.39	898.00
1104.63	934.00
1104.86	927.00
1105.10	902.00
1105.34	926.00
1105.58	921.00
1105.82	924.00
1106.05	912.00
1106.29	918.00
1106.53	912.00
1106.77	952.00
1107.01	900.00
1107.24	926.00
1107.48	969.00
1107.72	949.00
1107.96	884.00
1108.20	899.00
1108.43	932.00
1108.67	926.00
1108.91	906.00
1109.15	907.00
1109.39	927.00
1109.62	926.00
1109.86	889.00
1110.10	890.00
1110.34	966.00
1110.57	986.00
1110.81	907.00
1111.05	923.00
1111.29	958.00
1111.53	974.00
1111.76	920.00
1112.00	951.00
1112.24	970.00
1112.48	940.00
1112.71	880.00
1112.95	889.00
1113.19	934.00
1113.43	937.00
1113.66	876.00
1113.90	910.00
1114.14	941.00
1114.38	935.00
1114.62	886.00
1114.85	920.00
1115.09	935.00
1115.33	978.00
1115.57	923.00
1115.80	920.00
1116.04	929.00
1116.28	923.00
1116.52	894.00
1116.75	907.00
1116.99	947.00
1117.23	960.00
1117.47	924.00
1117.70	948.00
1117.94	973.00
1118.18	919.00
1118.42	898.00
1118.65	918.00
1118.89	938.00
1119.13	938.00
1119.37	895.00
1119.60	914.00
1119.84	930.00
>>>>>End Processed Spectral Data<<<<<
