SpectraSuite Data File
++++++++++++++++++++++++++++++++++++
Date: Fri Nov 29 15:18:53 CET 2024
User: student
Dark Spectrum Present: No
Reference Spectrum Present: No
Number of Sampled Component Spectra: 1
Spectrometers: HR4C155
Integration Time (usec): 100000 (HR4C155)
Spectra Averaged: 1 (HR4C155)
Boxcar Smoothing: 0 (HR4C155)
Correct for Electrical Dark: No (HR4C155)
Strobe/Lamp Enabled: No (HR4C155)
Correct for Detector Non-linearity: No (HR4C155)
Correct for Stray Light: No (HR4C155)
Number of Pixels in Processed Spectrum: 3648
>>>>>Begin Processed Spectral Data<<<<<
195.39	735.00
195.66	735.00
195.93	735.00
196.20	719.00
196.46	757.00
196.73	863.00
197.00	877.00
197.27	884.00
197.54	894.00
197.81	903.00
198.08	901.00
198.35	931.00
198.61	945.00
198.88	911.00
199.15	900.00
199.42	919.00
199.69	936.00
199.96	911.00
200.23	920.00
200.49	906.00
200.76	947.00
201.03	932.00
201.30	923.00
201.57	973.00
201.84	985.00
202.11	937.00
202.38	945.00
202.64	949.00
202.91	986.00
203.18	914.00
203.45	977.00
203.72	1066.00
203.99	974.00
204.25	962.00
204.52	964.00
204.79	983.00
205.06	991.00
205.33	925.00
205.60	941.00
205.87	979.00
206.13	977.00
206.40	947.00
206.67	935.00
206.94	968.00
207.21	961.00
207.48	946.00
207.75	950.00
208.01	982.00
208.28	978.00
208.55	936.00
208.82	949.00
209.09	959.00
209.36	1002.00
209.62	961.00
209.89	983.00
210.16	988.00
210.43	1026.00
210.70	941.00
210.97	937.00
211.23	985.00
211.50	1009.00
211.77	940.00
212.04	953.00
212.31	970.00
212.58	1009.00
212.84	964.00
213.11	974.00
213.38	928.00
213.65	961.00
213.92	944.00
214.18	944.00
214.45	992.00
214.72	991.00
214.99	915.00
215.26	962.00
215.53	948.00
215.79	974.00
216.06	962.00
216.33	965.00
216.60	933.00
216.87	976.00
217.13	902.00
217.40	933.00
217.67	968.00
217.94	1011.00
218.21	936.00
218.48	972.00
218.74	1017.00
219.01	1000.00
219.28	928.00
219.55	925.00
219.82	972.00
220.08	987.00
220.35	937.00
220.62	937.00
220.89	994.00
221.16	1022.00
221.42	969.00
221.69	955.00
221.96	985.00
222.23	999.00
222.50	983.00
222.76	981.00
223.03	958.00
223.30	946.00
223.57	928.00
223.84	931.00
224.10	941.00
224.37	967.00
224.64	949.00
224.91	954.00
225.18	994.00
225.44	993.00
225.71	940.00
225.98	974.00
226.25	988.00
226.51	986.00
226.78	941.00
227.05	935.00
227.32	952.00
227.59	956.00
227.85	950.00
228.12	941.00
228.39	994.00
228.66	989.00
228.92	993.00
229.19	960.00
229.46	973.00
229.73	948.00
230.00	935.00
230.26	974.00
230.53	988.00
230.80	976.00
231.07	913.00
231.33	924.00
231.60	951.00
231.87	986.00
232.14	956.00
232.41	1007.00
232.67	982.00
232.94	987.00
233.21	953.00
233.48	970.00
233.74	963.00
234.01	963.00
234.28	927.00
234.55	957.00
234.81	950.00
235.08	1009.00
235.35	951.00
235.62	936.00
235.88	958.00
236.15	976.00
236.42	967.00
236.69	953.00
236.95	976.00
237.22	964.00
237.49	956.00
237.76	941.00
238.02	985.00
238.29	1000.00
238.56	945.00
238.83	934.00
239.09	931.00
239.36	974.00
239.63	928.00
239.90	941.00
240.16	999.00
240.43	1038.00
240.70	957.00
240.97	942.00
241.23	950.00
241.50	977.00
241.77	959.00
242.04	937.00
242.30	920.00
242.57	946.00
242.84	926.00
243.11	938.00
243.37	920.00
243.64	985.00
243.91	940.00
244.18	945.00
244.44	921.00
244.71	929.00
244.98	938.00
245.24	938.00
245.51	949.00
245.78	1001.00
246.05	939.00
246.31	943.00
246.58	972.00
246.85	954.00
247.12	934.00
247.38	979.00
247.65	977.00
247.92	995.00
248.18	954.00
248.45	955.00
248.72	961.00
248.99	972.00
249.25	911.00
249.52	938.00
249.79	965.00
250.05	965.00
250.32	954.00
250.59	949.00
250.86	963.00
251.12	949.00
251.39	934.00
251.66	953.00
251.92	991.00
252.19	978.00
252.46	931.00
252.73	961.00
252.99	986.00
253.26	1005.00
253.53	934.00
253.79	956.00
254.06	976.00
254.33	946.00
254.60	920.00
254.86	939.00
255.13	994.00
255.40	997.00
255.66	951.00
255.93	984.00
256.20	986.00
256.46	986.00
256.73	946.00
257.00	955.00
257.26	973.00
257.53	969.00
257.80	969.00
258.07	991.00
258.33	1032.00
258.60	999.00
258.87	933.00
259.13	956.00
259.40	959.00
259.67	997.00
259.93	954.00
260.20	982.00
260.47	989.00
260.73	957.00
261.00	944.00
261.27	958.00
261.53	986.00
261.80	997.00
262.07	933.00
262.34	955.00
262.60	919.00
262.87	967.00
263.14	937.00
263.40	967.00
263.67	972.00
263.94	958.00
264.20	933.00
264.47	917.00
264.74	928.00
265.00	949.00
265.27	919.00
265.54	950.00
265.80	977.00
266.07	999.00
266.34	934.00
266.60	950.00
266.87	962.00
267.14	976.00
267.40	923.00
267.67	924.00
267.94	979.00
268.20	970.00
268.47	909.00
268.74	921.00
269.00	951.00
269.27	935.00
269.54	890.00
269.80	918.00
270.07	973.00
270.33	958.00
270.60	927.00
270.87	958.00
271.13	950.00
271.40	969.00
271.67	911.00
271.93	910.00
272.20	961.00
272.47	953.00
272.73	911.00
273.00	942.00
273.27	944.00
273.53	989.00
273.80	940.00
274.07	925.00
274.33	941.00
274.60	987.00
274.86	952.00
275.13	947.00
275.40	943.00
275.66	1009.00
275.93	945.00
276.20	940.00
276.46	943.00
276.73	939.00
277.00	941.00
277.26	951.00
277.53	968.00
277.79	957.00
278.06	944.00
278.33	984.00
278.59	973.00
278.86	956.00
279.13	949.00
279.39	937.00
279.66	991.00
279.93	1000.00
280.19	933.00
280.46	945.00
280.72	948.00
280.99	964.00
281.26	937.00
281.52	940.00
281.79	966.00
282.05	965.00
282.32	952.00
282.59	954.00
282.85	975.00
283.12	973.00
283.39	936.00
283.65	961.00
283.92	973.00
284.18	977.00
284.45	937.00
284.72	948.00
284.98	969.00
285.25	964.00
285.51	952.00
285.78	947.00
286.05	947.00
286.31	958.00
286.58	927.00
286.84	928.00
287.11	964.00
287.38	988.00
287.64	963.00
287.91	934.00
288.17	959.00
288.44	982.00
288.71	914.00
288.97	949.00
289.24	965.00
289.50	954.00
289.77	950.00
290.04	914.00
290.30	945.00
290.57	983.00
290.83	921.00
291.10	933.00
291.37	968.00
291.63	965.00
291.90	979.00
292.16	958.00
292.43	966.00
292.70	944.00
292.96	905.00
293.23	916.00
293.49	942.00
293.76	964.00
294.02	936.00
294.29	936.00
294.56	966.00
294.82	980.00
295.09	945.00
295.35	939.00
295.62	987.00
295.89	998.00
296.15	926.00
296.42	932.00
296.68	956.00
296.95	954.00
297.21	945.00
297.48	931.00
297.75	952.00
298.01	990.00
298.28	941.00
298.54	965.00
298.81	958.00
299.07	981.00
299.34	911.00
299.61	938.00
299.87	953.00
300.14	935.00
300.40	957.00
300.67	954.00
300.93	977.00
301.20	1001.00
301.46	918.00
301.73	935.00
302.00	964.00
302.26	944.00
302.53	942.00
302.79	941.00
303.06	958.00
303.32	1021.00
303.59	943.00
303.85	918.00
304.12	934.00
304.39	948.00
304.65	946.00
304.92	951.00
305.18	964.00
305.45	971.00
305.71	936.00
305.98	943.00
306.24	938.00
306.51	949.00
306.77	940.00
307.04	957.00
307.31	981.00
307.57	970.00
307.84	900.00
308.10	934.00
308.37	928.00
308.63	935.00
308.90	931.00
309.16	969.00
309.43	980.00
309.69	947.00
309.96	934.00
310.22	923.00
310.49	948.00
310.76	974.00
311.02	924.00
311.29	929.00
311.55	931.00
311.82	951.00
312.08	951.00
312.35	963.00
312.61	1002.00
312.88	1002.00
313.14	949.00
313.41	917.00
313.67	914.00
313.94	946.00
314.20	955.00
314.47	949.00
314.73	939.00
315.00	940.00
315.26	931.00
315.53	961.00
315.79	972.00
316.06	968.00
316.32	934.00
316.59	949.00
316.85	957.00
317.12	969.00
317.39	903.00
317.65	929.00
317.92	941.00
318.18	983.00
318.45	946.00
318.71	994.00
318.98	990.00
319.24	957.00
319.51	946.00
319.77	934.00
320.04	947.00
320.30	965.00
320.57	922.00
320.83	933.00
321.10	936.00
321.36	947.00
321.63	924.00
321.89	916.00
322.16	987.00
322.42	971.00
322.69	930.00
322.95	933.00
323.22	960.00
323.48	973.00
323.75	910.00
324.01	931.00
324.28	974.00
324.54	973.00
324.80	942.00
325.07	972.00
325.33	968.00
325.60	945.00
325.86	914.00
326.13	926.00
326.39	945.00
326.66	940.00
326.92	892.00
327.19	948.00
327.45	1013.00
327.72	990.00
327.98	940.00
328.25	942.00
328.51	961.00
328.78	954.00
329.04	932.00
329.31	947.00
329.57	962.00
329.84	955.00
330.10	928.00
330.37	955.00
330.63	1009.00
330.89	999.00
331.16	931.00
331.42	945.00
331.69	993.00
331.95	949.00
332.22	938.00
332.48	972.00
332.75	966.00
333.01	918.00
333.28	912.00
333.54	947.00
333.81	960.00
334.07	976.00
334.34	929.00
334.60	946.00
334.86	994.00
335.13	996.00
335.39	950.00
335.66	942.00
335.92	985.00
336.19	975.00
336.45	898.00
336.72	938.00
336.98	955.00
337.24	965.00
337.51	922.00
337.77	933.00
338.04	962.00
338.30	960.00
338.57	924.00
338.83	931.00
339.10	982.00
339.36	984.00
339.63	944.00
339.89	912.00
340.15	958.00
340.42	967.00
340.68	953.00
340.95	962.00
341.21	954.00
341.48	969.00
341.74	916.00
342.00	908.00
342.27	941.00
342.53	962.00
342.80	932.00
343.06	938.00
343.33	932.00
343.59	953.00
343.85	929.00
344.12	951.00
344.38	1007.00
344.65	993.00
344.91	928.00
345.18	921.00
345.44	930.00
345.70	951.00
345.97	906.00
346.23	938.00
346.50	971.00
346.76	967.00
347.03	954.00
347.29	937.00
347.55	944.00
347.82	953.00
348.08	901.00
348.35	911.00
348.61	992.00
348.87	970.00
349.14	911.00
349.40	920.00
349.67	958.00
349.93	968.00
350.20	950.00
350.46	940.00
350.72	953.00
350.99	926.00
351.25	918.00
351.52	938.00
351.78	939.00
352.04	961.00
352.31	924.00
352.57	935.00
352.84	928.00
353.10	954.00
353.36	930.00
353.63	929.00
353.89	944.00
354.16	976.00
354.42	967.00
354.68	955.00
354.95	980.00
355.21	988.00
355.48	915.00
355.74	955.00
356.00	1001.00
356.27	1003.00
356.53	911.00
356.80	922.00
357.06	982.00
357.32	981.00
357.59	974.00
357.85	959.00
358.11	990.00
358.38	976.00
358.64	947.00
358.91	950.00
359.17	971.00
359.43	972.00
359.70	952.00
359.96	935.00
360.22	968.00
360.49	952.00
360.75	939.00
361.02	924.00
361.28	933.00
361.54	941.00
361.81	920.00
362.07	931.00
362.33	940.00
362.60	950.00
362.86	920.00
363.13	940.00
363.39	980.00
363.65	984.00
363.92	883.00
364.18	895.00
364.44	948.00
364.71	973.00
364.97	940.00
365.24	925.00
365.50	967.00
365.76	981.00
366.03	931.00
366.29	948.00
366.55	974.00
366.82	937.00
367.08	919.00
367.34	949.00
367.61	969.00
367.87	966.00
368.13	933.00
368.40	930.00
368.66	987.00
368.93	958.00
369.19	899.00
369.45	921.00
369.72	968.00
369.98	942.00
370.24	909.00
370.51	928.00
370.77	952.00
371.03	950.00
371.30	941.00
371.56	965.00
371.82	973.00
372.09	959.00
372.35	950.00
372.61	943.00
372.88	941.00
373.14	970.00
373.40	946.00
373.67	937.00
373.93	966.00
374.19	980.00
374.46	919.00
374.72	905.00
374.98	954.00
375.25	972.00
375.51	962.00
375.77	975.00
376.04	963.00
376.30	966.00
376.56	917.00
376.83	927.00
377.09	955.00
377.35	962.00
377.62	945.00
377.88	938.00
378.14	949.00
378.41	954.00
378.67	933.00
378.93	931.00
379.20	964.00
379.46	930.00
379.72	918.00
379.99	914.00
380.25	936.00
380.51	920.00
380.77	924.00
381.04	949.00
381.30	970.00
381.56	971.00
381.83	964.00
382.09	928.00
382.35	940.00
382.62	976.00
382.88	960.00
383.14	939.00
383.41	943.00
383.67	944.00
383.93	952.00
384.20	954.00
384.46	965.00
384.72	968.00
384.98	926.00
385.25	941.00
385.51	964.00
385.77	960.00
386.04	928.00
386.30	925.00
386.56	982.00
386.82	1017.00
387.09	940.00
387.35	974.00
387.61	1027.00
387.88	978.00
388.14	937.00
388.40	965.00
388.67	935.00
388.93	951.00
389.19	952.00
389.45	930.00
389.72	950.00
389.98	965.00
390.24	944.00
390.51	928.00
390.77	964.00
391.03	972.00
391.29	916.00
391.56	936.00
391.82	958.00
392.08	986.00
392.35	931.00
392.61	935.00
392.87	951.00
393.13	983.00
393.40	938.00
393.66	934.00
393.92	961.00
394.18	976.00
394.45	904.00
394.71	912.00
394.97	927.00
395.24	934.00
395.50	912.00
395.76	946.00
396.02	969.00
396.29	958.00
396.55	896.00
396.81	878.00
397.07	948.00
397.34	927.00
397.60	890.00
397.86	901.00
398.12	936.00
398.39	975.00
398.65	928.00
398.91	935.00
399.17	948.00
399.44	907.00
399.70	893.00
399.96	923.00
400.22	928.00
400.49	966.00
400.75	915.00
401.01	918.00
401.27	927.00
401.54	976.00
401.80	940.00
402.06	919.00
402.32	965.00
402.59	945.00
402.85	911.00
403.11	913.00
403.37	929.00
403.64	968.00
403.90	935.00
404.16	945.00
404.42	965.00
404.69	922.00
404.95	927.00
405.21	893.00
405.47	924.00
405.74	983.00
406.00	946.00
406.26	920.00
406.52	939.00
406.79	968.00
407.05	920.00
407.31	947.00
407.57	940.00
407.83	946.00
408.10	900.00
408.36	912.00
408.62	942.00
408.88	936.00
409.15	923.00
409.41	900.00
409.67	932.00
409.93	979.00
410.20	954.00
410.46	939.00
410.72	935.00
410.98	960.00
411.24	931.00
411.51	930.00
411.77	925.00
412.03	957.00
412.29	939.00
412.55	964.00
412.82	947.00
413.08	949.00
413.34	937.00
413.60	926.00
413.87	943.00
414.13	957.00
414.39	910.00
414.65	945.00
414.91	958.00
415.18	939.00
415.44	904.00
415.70	903.00
415.96	935.00
416.22	951.00
416.49	921.00
416.75	920.00
417.01	942.00
417.27	953.00
417.53	937.00
417.80	937.00
418.06	962.00
418.32	973.00
418.58	917.00
418.84	913.00
419.11	949.00
419.37	967.00
419.63	919.00
419.89	933.00
420.15	966.00
420.42	958.00
420.68	922.00
420.94	934.00
421.20	936.00
421.46	967.00
421.72	954.00
421.99	939.00
422.25	957.00
422.51	964.00
422.77	942.00
423.03	952.00
423.30	949.00
423.56	964.00
423.82	964.00
424.08	956.00
424.34	959.00
424.60	965.00
424.87	920.00
425.13	904.00
425.39	928.00
425.65	938.00
425.91	918.00
426.18	933.00
426.44	963.00
426.70	928.00
426.96	889.00
427.22	900.00
427.48	922.00
427.75	933.00
428.01	900.00
428.27	922.00
428.53	972.00
428.79	934.00
429.05	905.00
429.32	918.00
429.58	980.00
429.84	937.00
430.10	941.00
430.36	952.00
430.62	969.00
430.88	980.00
431.15	961.00
431.41	943.00
431.67	953.00
431.93	938.00
432.19	889.00
432.45	932.00
432.72	941.00
432.98	937.00
433.24	959.00
433.50	1041.00
433.76	934.00
434.02	927.00
434.28	901.00
434.55	927.00
434.81	972.00
435.07	949.00
435.33	897.00
435.59	911.00
435.85	932.00
436.11	955.00
436.38	904.00
436.64	915.00
436.90	936.00
437.16	931.00
437.42	899.00
437.68	925.00
437.94	951.00
438.21	953.00
438.47	944.00
438.73	933.00
438.99	948.00
439.25	956.00
439.51	911.00
439.77	938.00
440.03	940.00
440.30	959.00
440.56	943.00
440.82	951.00
441.08	969.00
441.34	964.00
441.60	909.00
441.86	942.00
442.12	944.00
442.39	932.00
442.65	913.00
442.91	935.00
443.17	944.00
443.43	943.00
443.69	931.00
443.95	898.00
444.21	936.00
444.47	961.00
444.74	900.00
445.00	929.00
445.26	936.00
445.52	943.00
445.78	912.00
446.04	912.00
446.30	966.00
446.56	948.00
446.82	913.00
447.09	932.00
447.35	962.00
447.61	957.00
447.87	930.00
448.13	946.00
448.39	991.00
448.65	969.00
448.91	919.00
449.17	919.00
449.43	950.00
449.70	941.00
449.96	913.00
450.22	908.00
450.48	938.00
450.74	971.00
451.00	923.00
451.26	922.00
451.52	942.00
451.78	932.00
452.04	917.00
452.31	949.00
452.57	962.00
452.83	935.00
453.09	915.00
453.35	919.00
453.61	948.00
453.87	945.00
454.13	940.00
454.39	945.00
454.65	1019.00
454.91	1006.00
455.17	910.00
455.44	931.00
455.70	943.00
455.96	940.00
456.22	901.00
456.48	913.00
456.74	926.00
457.00	916.00
457.26	878.00
457.52	910.00
457.78	925.00
458.04	938.00
458.30	905.00
458.56	936.00
458.82	934.00
459.09	925.00
459.35	873.00
459.61	893.00
459.87	962.00
460.13	973.00
460.39	915.00
460.65	896.00
460.91	955.00
461.17	943.00
461.43	903.00
461.69	907.00
461.95	950.00
462.21	940.00
462.47	935.00
462.73	949.00
462.99	960.00
463.26	965.00
463.52	916.00
463.78	890.00
464.04	910.00
464.30	931.00
464.56	922.00
464.82	941.00
465.08	982.00
465.34	992.00
465.60	946.00
465.86	936.00
466.12	931.00
466.38	914.00
466.64	906.00
466.90	924.00
467.16	946.00
467.42	961.00
467.68	890.00
467.94	922.00
468.20	971.00
468.46	937.00
468.72	929.00
468.98	953.00
469.25	950.00
469.51	933.00
469.77	933.00
470.03	928.00
470.29	934.00
470.55	956.00
470.81	924.00
471.07	926.00
471.33	961.00
471.59	965.00
471.85	921.00
472.11	947.00
472.37	969.00
472.63	948.00
472.89	940.00
473.15	935.00
473.41	941.00
473.67	936.00
473.93	892.00
474.19	893.00
474.45	909.00
474.71	950.00
474.97	914.00
475.23	915.00
475.49	924.00
475.75	921.00
476.01	924.00
476.27	951.00
476.53	956.00
476.79	961.00
477.05	932.00
477.31	928.00
477.57	960.00
477.83	944.00
478.09	887.00
478.35	934.00
478.61	977.00
478.87	953.00
479.13	905.00
479.39	967.00
479.65	976.00
479.91	955.00
480.17	934.00
480.43	948.00
480.69	926.00
480.95	939.00
481.21	925.00
481.47	917.00
481.73	933.00
481.99	933.00
482.25	900.00
482.51	898.00
482.77	961.00
483.03	954.00
483.29	930.00
483.55	935.00
483.81	976.00
484.07	957.00
484.33	913.00
484.59	930.00
484.85	955.00
485.11	952.00
485.37	925.00
485.63	928.00
485.89	911.00
486.15	923.00
486.41	910.00
486.67	932.00
486.93	937.00
487.19	936.00
487.45	910.00
487.71	911.00
487.97	950.00
488.23	946.00
488.49	902.00
488.75	905.00
489.01	945.00
489.27	969.00
489.53	921.00
489.79	912.00
490.05	955.00
490.31	981.00
490.57	947.00
490.83	976.00
491.08	942.00
491.34	923.00
491.60	905.00
491.86	937.00
492.12	985.00
492.38	970.00
492.64	916.00
492.90	905.00
493.16	952.00
493.42	918.00
493.68	878.00
493.94	928.00
494.20	932.00
494.46	938.00
494.72	904.00
494.98	930.00
495.24	927.00
495.50	947.00
495.76	929.00
496.02	940.00
496.28	962.00
496.54	969.00
496.80	926.00
497.05	895.00
497.31	956.00
497.57	962.00
497.83	908.00
498.09	948.00
498.35	968.00
498.61	965.00
498.87	927.00
499.13	909.00
499.39	930.00
499.65	938.00
499.91	937.00
500.17	916.00
500.43	993.00
500.69	1023.00
500.95	922.00
501.20	930.00
501.46	970.00
501.72	971.00
501.98	959.00
502.24	944.00
502.50	974.00
502.76	936.00
503.02	916.00
503.28	938.00
503.54	989.00
503.80	986.00
504.06	951.00
504.32	959.00
504.58	964.00
504.83	942.00
505.09	905.00
505.35	937.00
505.61	930.00
505.87	930.00
506.13	930.00
506.39	915.00
506.65	967.00
506.91	997.00
507.17	942.00
507.43	929.00
507.68	942.00
507.94	957.00
508.20	900.00
508.46	898.00
508.72	964.00
508.98	988.00
509.24	918.00
509.50	940.00
509.76	933.00
510.02	939.00
510.28	930.00
510.53	930.00
510.79	963.00
511.05	951.00
511.31	910.00
511.57	931.00
511.83	953.00
512.09	981.00
512.35	913.00
512.61	916.00
512.87	941.00
513.12	964.00
513.38	916.00
513.64	934.00
513.90	964.00
514.16	988.00
514.42	933.00
514.68	936.00
514.94	972.00
515.20	965.00
515.45	921.00
515.71	912.00
515.97	940.00
516.23	930.00
516.49	905.00
516.75	911.00
517.01	951.00
517.27	945.00
517.53	914.00
517.78	926.00
518.04	945.00
518.30	914.00
518.56	892.00
518.82	951.00
519.08	985.00
519.34	925.00
519.60	914.00
519.85	927.00
520.11	942.00
520.37	934.00
520.63	914.00
520.89	940.00
521.15	936.00
521.41	938.00
521.66	923.00
521.92	922.00
522.18	972.00
522.44	978.00
522.70	915.00
522.96	888.00
523.22	944.00
523.48	940.00
523.73	922.00
523.99	914.00
524.25	979.00
524.51	967.00
524.77	907.00
525.03	906.00
525.29	949.00
525.54	958.00
525.80	918.00
526.06	924.00
526.32	929.00
526.58	942.00
526.84	927.00
527.09	916.00
527.35	912.00
527.61	927.00
527.87	908.00
528.13	951.00
528.39	931.00
528.65	937.00
528.90	889.00
529.16	901.00
529.42	918.00
529.68	933.00
529.94	897.00
530.20	916.00
530.45	917.00
530.71	940.00
530.97	907.00
531.23	912.00
531.49	966.00
531.75	933.00
532.00	934.00
532.26	913.00
532.52	954.00
532.78	921.00
533.04	883.00
533.30	904.00
533.55	945.00
533.81	945.00
534.07	891.00
534.33	919.00
534.59	960.00
534.85	935.00
535.10	897.00
535.36	902.00
535.62	956.00
535.88	952.00
536.14	906.00
536.39	902.00
536.65	937.00
536.91	950.00
537.17	924.00
537.43	922.00
537.69	977.00
537.94	956.00
538.20	918.00
538.46	929.00
538.72	941.00
538.98	965.00
539.23	899.00
539.49	900.00
539.75	948.00
540.01	941.00
540.27	927.00
540.52	967.00
540.78	961.00
541.04	965.00
541.30	893.00
541.56	894.00
541.81	984.00
542.07	1029.00
542.33	930.00
542.59	928.00
542.85	937.00
543.10	942.00
543.36	906.00
543.62	926.00
543.88	934.00
544.14	926.00
544.39	922.00
544.65	935.00
544.91	984.00
545.17	938.00
545.43	920.00
545.68	912.00
545.94	947.00
546.20	956.00
546.46	932.00
546.71	933.00
546.97	952.00
547.23	944.00
547.49	907.00
547.75	907.00
548.00	944.00
548.26	946.00
548.52	899.00
548.78	901.00
549.03	919.00
549.29	931.00
549.55	886.00
549.81	917.00
550.07	936.00
550.32	945.00
550.58	902.00
550.84	931.00
551.10	925.00
551.35	922.00
551.61	921.00
551.87	926.00
552.13	934.00
552.39	934.00
552.64	885.00
552.90	919.00
553.16	949.00
553.42	932.00
553.67	884.00
553.93	914.00
554.19	976.00
554.45	999.00
554.70	940.00
554.96	922.00
555.22	935.00
555.48	958.00
555.73	911.00
555.99	934.00
556.25	966.00
556.51	948.00
556.76	926.00
557.02	941.00
557.28	968.00
557.54	924.00
557.79	911.00
558.05	938.00
558.31	930.00
558.57	958.00
558.82	918.00
559.08	906.00
559.34	910.00
559.60	950.00
559.85	909.00
560.11	925.00
560.37	959.00
560.63	932.00
560.88	898.00
561.14	904.00
561.40	964.00
561.66	925.00
561.91	918.00
562.17	932.00
562.43	948.00
562.68	956.00
562.94	932.00
563.20	956.00
563.46	954.00
563.71	961.00
563.97	904.00
564.23	921.00
564.49	969.00
564.74	936.00
565.00	907.00
565.26	922.00
565.51	937.00
565.77	915.00
566.03	899.00
566.29	927.00
566.54	914.00
566.80	923.00
567.06	926.00
567.31	932.00
567.57	949.00
567.83	926.00
568.09	921.00
568.34	921.00
568.60	938.00
568.86	964.00
569.11	942.00
569.37	908.00
569.63	943.00
569.89	964.00
570.14	896.00
570.40	902.00
570.66	922.00
570.91	933.00
571.17	910.00
571.43	936.00
571.69	983.00
571.94	980.00
572.20	912.00
572.46	918.00
572.71	968.00
572.97	950.00
573.23	917.00
573.48	911.00
573.74	928.00
574.00	967.00
574.26	916.00
574.51	920.00
574.77	966.00
575.03	961.00
575.28	915.00
575.54	900.00
575.80	907.00
576.05	933.00
576.31	906.00
576.57	905.00
576.82	942.00
577.08	944.00
577.34	900.00
577.59	923.00
577.85	963.00
578.11	928.00
578.37	893.00
578.62	897.00
578.88	940.00
579.14	960.00
579.39	906.00
579.65	934.00
579.91	947.00
580.16	924.00
580.42	901.00
580.68	920.00
580.93	958.00
581.19	931.00
581.45	893.00
581.70	921.00
581.96	961.00
582.22	973.00
582.47	936.00
582.73	926.00
582.99	956.00
583.24	947.00
583.50	904.00
583.76	940.00
584.01	935.00
584.27	947.00
584.53	925.00
584.78	921.00
585.04	927.00
585.30	955.00
585.55	937.00
585.81	917.00
586.07	966.00
586.32	971.00
586.58	938.00
586.83	929.00
587.09	961.00
587.35	953.00
587.60	916.00
587.86	898.00
588.12	934.00
588.37	960.00
588.63	924.00
588.89	928.00
589.14	965.00
589.40	966.00
589.66	925.00
589.91	937.00
590.17	943.00
590.43	909.00
590.68	906.00
590.94	929.00
591.19	969.00
591.45	942.00
591.71	921.00
591.96	931.00
592.22	940.00
592.48	974.00
592.73	911.00
592.99	929.00
593.25	947.00
593.50	960.00
593.76	912.00
594.01	929.00
594.27	965.00
594.53	961.00
594.78	924.00
595.04	934.00
595.30	949.00
595.55	954.00
595.81	913.00
596.06	934.00
596.32	978.00
596.58	965.00
596.83	919.00
597.09	964.00
597.35	954.00
597.60	950.00
597.86	918.00
598.11	940.00
598.37	986.00
598.63	981.00
598.88	917.00
599.14	912.00
599.39	960.00
599.65	960.00
599.91	904.00
600.16	926.00
600.42	959.00
600.67	982.00
600.93	935.00
601.19	950.00
601.44	1004.00
601.70	985.00
601.95	928.00
602.21	963.00
602.47	964.00
602.72	969.00
602.98	925.00
603.23	962.00
603.49	987.00
603.75	983.00
604.00	950.00
604.26	956.00
604.51	949.00
604.77	985.00
605.03	942.00
605.28	946.00
605.54	1009.00
605.79	1001.00
606.05	929.00
606.31	938.00
606.56	970.00
606.82	990.00
607.07	965.00
607.33	985.00
607.59	988.00
607.84	968.00
608.10	940.00
608.35	975.00
608.61	1000.00
608.86	1013.00
609.12	977.00
609.38	998.00
609.63	1018.00
609.89	1024.00
610.14	978.00
610.40	978.00
610.65	1020.00
610.91	1018.00
611.17	972.00
611.42	987.00
611.68	1045.00
611.93	1066.00
612.19	1047.00
612.44	1043.00
612.70	1075.00
612.96	1025.00
613.21	998.00
613.47	1011.00
613.72	1037.00
613.98	1055.00
614.23	1008.00
614.49	1041.00
614.75	1050.00
615.00	1055.00
615.26	1043.00
615.51	1042.00
615.77	1053.00
616.02	1085.00
616.28	1074.00
616.53	1116.00
616.79	1122.00
617.05	1095.00
617.30	1075.00
617.56	1099.00
617.81	1158.00
618.07	1154.00
618.32	1154.00
618.58	1197.00
618.83	1186.00
619.09	1181.00
619.34	1159.00
619.60	1155.00
619.86	1205.00
620.11	1233.00
620.37	1216.00
620.62	1240.00
620.88	1253.00
621.13	1257.00
621.39	1260.00
621.64	1324.00
621.90	1363.00
622.15	1350.00
622.41	1325.00
622.66	1381.00
622.92	1435.00
623.18	1462.00
623.43	1387.00
623.69	1384.00
623.94	1432.00
624.20	1437.00
624.45	1411.00
624.71	1481.00
624.96	1555.00
625.22	1572.00
625.47	1529.00
625.73	1576.00
625.98	1592.00
626.24	1607.00
626.49	1609.00
626.75	1658.00
627.00	1775.00
627.26	1856.00
627.51	1741.00
627.77	1737.00
628.02	1825.00
628.28	1929.00
628.53	1889.00
628.79	1999.00
629.05	2097.00
629.30	2251.00
629.56	2405.00
629.81	2422.00
630.07	2511.00
630.32	2525.00
630.58	2417.00
630.83	2409.00
631.09	2417.00
631.34	2452.00
631.60	2633.00
631.85	2855.00
632.11	2980.00
632.36	3048.00
632.62	3059.00
632.87	3253.00
633.13	3321.00
633.38	3167.00
633.64	3067.00
633.89	3442.00
634.15	4156.00
634.40	4337.00
634.66	3772.00
634.91	3665.00
635.17	3945.00
635.42	4246.00
635.68	4442.00
635.93	4567.00
636.18	4915.00
636.44	4917.00
636.69	4677.00
636.95	4321.00
637.20	4203.00
637.46	4366.00
637.71	4449.00
637.97	4492.00
638.22	4412.00
638.48	4409.00
638.73	4490.00
638.99	4537.00
639.24	4642.00
639.50	4452.00
639.75	4303.00
640.01	4179.00
640.26	3746.00
640.52	3405.00
640.77	3326.00
641.03	3530.00
641.28	3610.00
641.54	3496.00
641.79	3061.00
642.04	2773.00
642.30	2661.00
642.55	2770.00
642.81	3042.00
643.06	3038.00
643.32	2789.00
643.57	2542.00
643.83	2381.00
644.08	2419.00
644.34	2493.00
644.59	2568.00
644.85	2543.00
645.10	2429.00
645.35	2250.00
645.61	2144.00
645.86	2075.00
646.12	1982.00
646.37	1879.00
646.63	1791.00
646.88	1718.00
647.14	1673.00
647.39	1644.00
647.65	1690.00
647.90	1671.00
648.15	1729.00
648.41	1675.00
648.66	1546.00
648.92	1458.00
649.17	1507.00
649.43	1514.00
649.68	1463.00
649.94	1384.00
650.19	1282.00
650.44	1288.00
650.70	1278.00
650.95	1213.00
651.21	1218.00
651.46	1224.00
651.72	1218.00
651.97	1194.00
652.23	1161.00
652.48	1169.00
652.73	1164.00
652.99	1110.00
653.24	1141.00
653.50	1150.00
653.75	1121.00
654.01	1085.00
654.26	1078.00
654.51	1107.00
654.77	1108.00
655.02	1079.00
655.28	1045.00
655.53	1054.00
655.79	1080.00
656.04	1035.00
656.29	1024.00
656.55	1029.00
656.80	1053.00
657.06	1017.00
657.31	996.00
657.56	1003.00
657.82	1020.00
658.07	983.00
658.33	1004.00
658.58	1011.00
658.84	1045.00
659.09	1016.00
659.34	1008.00
659.60	1008.00
659.85	988.00
660.11	963.00
660.36	983.00
660.61	966.00
660.87	958.00
661.12	943.00
661.38	968.00
661.63	979.00
661.88	984.00
662.14	971.00
662.39	955.00
662.65	999.00
662.90	1016.00
663.15	929.00
663.41	955.00
663.66	998.00
663.92	988.00
664.17	930.00
664.42	956.00
664.68	977.00
664.93	958.00
665.19	914.00
665.44	914.00
665.69	936.00
665.95	977.00
666.20	921.00
666.45	948.00
666.71	957.00
666.96	965.00
667.22	917.00
667.47	928.00
667.72	936.00
667.98	962.00
668.23	926.00
668.49	963.00
668.74	961.00
668.99	960.00
669.25	921.00
669.50	935.00
669.75	950.00
670.01	954.00
670.26	902.00
670.52	921.00
670.77	955.00
671.02	943.00
671.28	916.00
671.53	939.00
671.78	949.00
672.04	954.00
672.29	918.00
672.54	923.00
672.80	951.00
673.05	943.00
673.31	910.00
673.56	946.00
673.81	972.00
674.07	946.00
674.32	929.00
674.57	934.00
674.83	942.00
675.08	949.00
675.33	931.00
675.59	949.00
675.84	968.00
676.09	936.00
676.35	928.00
676.60	937.00
676.86	954.00
677.11	991.00
677.36	935.00
677.62	957.00
677.87	1010.00
678.12	986.00
678.38	915.00
678.63	943.00
678.88	959.00
679.14	977.00
679.39	905.00
679.64	919.00
679.90	925.00
680.15	974.00
680.40	958.00
680.66	921.00
680.91	942.00
681.16	950.00
681.42	920.00
681.67	905.00
681.92	922.00
682.18	980.00
682.43	919.00
682.68	893.00
682.94	925.00
683.19	908.00
683.44	898.00
683.70	913.00
683.95	938.00
684.20	928.00
684.46	918.00
684.71	936.00
684.96	924.00
685.22	935.00
685.47	906.00
685.72	937.00
685.98	945.00
686.23	904.00
686.48	916.00
686.74	949.00
686.99	970.00
687.24	945.00
687.50	912.00
687.75	910.00
688.00	931.00
688.25	940.00
688.51	921.00
688.76	935.00
689.01	922.00
689.27	938.00
689.52	897.00
689.77	929.00
690.03	921.00
690.28	924.00
690.53	904.00
690.79	941.00
691.04	939.00
691.29	940.00
691.54	890.00
691.80	925.00
692.05	924.00
692.30	930.00
692.56	914.00
692.81	931.00
693.06	923.00
693.32	914.00
693.57	908.00
693.82	945.00
694.07	954.00
694.33	946.00
694.58	906.00
694.83	943.00
695.09	921.00
695.34	957.00
695.59	919.00
695.84	906.00
696.10	949.00
696.35	951.00
696.60	886.00
696.86	904.00
697.11	950.00
697.36	955.00
697.61	904.00
697.87	919.00
698.12	905.00
698.37	938.00
698.63	929.00
698.88	914.00
699.13	956.00
699.38	946.00
699.64	897.00
699.89	922.00
700.14	918.00
700.39	929.00
700.65	911.00
700.90	922.00
701.15	942.00
701.40	938.00
701.66	903.00
701.91	920.00
702.16	926.00
702.42	924.00
702.67	881.00
702.92	903.00
703.17	915.00
703.43	927.00
703.68	901.00
703.93	950.00
704.18	959.00
704.44	922.00
704.69	923.00
704.94	936.00
705.19	944.00
705.45	936.00
705.70	929.00
705.95	909.00
706.20	915.00
706.46	944.00
706.71	903.00
706.96	891.00
707.21	914.00
707.47	927.00
707.72	917.00
707.97	922.00
708.22	946.00
708.48	977.00
708.73	902.00
708.98	887.00
709.23	933.00
709.49	944.00
709.74	906.00
709.99	916.00
710.24	927.00
710.50	924.00
710.75	933.00
711.00	946.00
711.25	946.00
711.50	926.00
711.76	911.00
712.01	923.00
712.26	916.00
712.51	931.00
712.77	900.00
713.02	916.00
713.27	905.00
713.52	941.00
713.78	914.00
714.03	922.00
714.28	913.00
714.53	922.00
714.78	905.00
715.04	937.00
715.29	954.00
715.54	948.00
715.79	899.00
716.05	952.00
716.30	950.00
716.55	953.00
716.80	910.00
717.05	934.00
717.31	949.00
717.56	945.00
717.81	933.00
718.06	896.00
718.31	901.00
718.57	934.00
718.82	908.00
719.07	941.00
719.32	923.00
719.57	945.00
719.83	901.00
720.08	920.00
720.33	912.00
720.58	902.00
720.83	904.00
721.09	953.00
721.34	942.00
721.59	962.00
721.84	909.00
722.09	917.00
722.35	927.00
722.60	921.00
722.85	881.00
723.10	918.00
723.35	926.00
723.61	947.00
723.86	934.00
724.11	931.00
724.36	929.00
724.61	925.00
724.87	920.00
725.12	908.00
725.37	904.00
725.62	906.00
725.87	913.00
726.12	912.00
726.38	909.00
726.63	928.00
726.88	908.00
727.13	922.00
727.38	922.00
727.64	946.00
727.89	911.00
728.14	906.00
728.39	892.00
728.64	917.00
728.89	908.00
729.15	939.00
729.40	954.00
729.65	957.00
729.90	890.00
730.15	930.00
730.40	951.00
730.66	935.00
730.91	902.00
731.16	923.00
731.41	926.00
731.66	933.00
731.91	913.00
732.17	940.00
732.42	941.00
732.67	917.00
732.92	893.00
733.17	925.00
733.42	927.00
733.68	939.00
733.93	900.00
734.18	912.00
734.43	909.00
734.68	912.00
734.93	895.00
735.18	928.00
735.44	932.00
735.69	941.00
735.94	882.00
736.19	916.00
736.44	916.00
736.69	966.00
736.95	921.00
737.20	933.00
737.45	944.00
737.70	949.00
737.95	927.00
738.20	939.00
738.45	928.00
738.70	923.00
738.96	916.00
739.21	955.00
739.46	952.00
739.71	949.00
739.96	925.00
740.21	934.00
740.46	988.00
740.72	956.00
740.97	906.00
741.22	949.00
741.47	917.00
741.72	928.00
741.97	887.00
742.22	922.00
742.47	935.00
742.73	933.00
742.98	908.00
743.23	904.00
743.48	921.00
743.73	932.00
743.98	920.00
744.23	923.00
744.48	931.00
744.74	921.00
744.99	883.00
745.24	945.00
745.49	936.00
745.74	946.00
745.99	913.00
746.24	934.00
746.49	923.00
746.74	923.00
747.00	923.00
747.25	918.00
747.50	892.00
747.75	917.00
748.00	878.00
748.25	916.00
748.50	929.00
748.75	940.00
749.00	944.00
749.26	978.00
749.51	937.00
749.76	936.00
750.01	889.00
750.26	920.00
750.51	966.00
750.76	948.00
751.01	896.00
751.26	904.00
751.51	937.00
751.77	958.00
752.02	922.00
752.27	914.00
752.52	925.00
752.77	934.00
753.02	916.00
753.27	933.00
753.52	915.00
753.77	913.00
754.02	904.00
754.27	911.00
754.52	895.00
754.78	926.00
755.03	909.00
755.28	921.00
755.53	933.00
755.78	927.00
756.03	885.00
756.28	909.00
756.53	926.00
756.78	939.00
757.03	921.00
757.28	936.00
757.53	938.00
757.79	900.00
758.04	889.00
758.29	953.00
758.54	950.00
758.79	946.00
759.04	889.00
759.29	909.00
759.54	905.00
759.79	923.00
760.04	891.00
760.29	914.00
760.54	909.00
760.79	925.00
761.04	901.00
761.29	925.00
761.55	916.00
761.80	924.00
762.05	899.00
762.30	928.00
762.55	927.00
762.80	944.00
763.05	922.00
763.30	936.00
763.55	955.00
763.80	934.00
764.05	881.00
764.30	924.00
764.55	951.00
764.80	928.00
765.05	890.00
765.30	922.00
765.55	926.00
765.80	923.00
766.05	891.00
766.30	917.00
766.56	929.00
766.81	946.00
767.06	953.00
767.31	943.00
767.56	900.00
767.81	918.00
768.06	906.00
768.31	925.00
768.56	923.00
768.81	976.00
769.06	910.00
769.31	922.00
769.56	914.00
769.81	943.00
770.06	890.00
770.31	913.00
770.56	937.00
770.81	905.00
771.06	878.00
771.31	929.00
771.56	924.00
771.81	936.00
772.06	901.00
772.31	930.00
772.56	930.00
772.81	950.00
773.06	905.00
773.31	933.00
773.56	925.00
773.81	900.00
774.06	891.00
774.31	923.00
774.56	925.00
774.81	944.00
775.06	925.00
775.31	948.00
775.56	925.00
775.81	920.00
776.06	889.00
776.31	917.00
776.56	924.00
776.82	921.00
777.07	884.00
777.32	912.00
777.57	939.00
777.82	980.00
778.07	909.00
778.32	914.00
778.57	932.00
778.82	971.00
779.07	918.00
779.32	923.00
779.57	901.00
779.82	928.00
780.07	905.00
780.32	924.00
780.56	945.00
780.81	974.00
781.06	906.00
781.31	918.00
781.56	941.00
781.81	932.00
782.06	898.00
782.31	939.00
782.56	921.00
782.81	944.00
783.06	908.00
783.31	920.00
783.56	922.00
783.81	964.00
784.06	926.00
784.31	920.00
784.56	905.00
784.81	968.00
785.06	944.00
785.31	951.00
785.56	907.00
785.81	903.00
786.06	877.00
786.31	931.00
786.56	907.00
786.81	925.00
787.06	934.00
787.31	930.00
787.56	913.00
787.81	909.00
788.06	894.00
788.31	923.00
788.56	905.00
788.81	948.00
789.06	907.00
789.31	910.00
789.56	921.00
789.81	934.00
790.06	892.00
790.31	947.00
790.56	913.00
790.80	921.00
791.05	886.00
791.30	889.00
791.55	924.00
791.80	931.00
792.05	915.00
792.30	917.00
792.55	912.00
792.80	929.00
793.05	883.00
793.30	914.00
793.55	940.00
793.80	949.00
794.05	904.00
794.30	909.00
794.55	923.00
794.80	939.00
795.05	896.00
795.30	905.00
795.54	904.00
795.79	931.00
796.04	896.00
796.29	925.00
796.54	938.00
796.79	951.00
797.04	915.00
797.29	932.00
797.54	950.00
797.79	936.00
798.04	900.00
798.29	898.00
798.54	888.00
798.79	905.00
799.04	897.00
799.29	930.00
799.53	928.00
799.78	917.00
800.03	909.00
800.28	899.00
800.53	909.00
800.78	956.00
801.03	914.00
801.28	928.00
801.53	918.00
801.78	945.00
802.03	908.00
802.28	918.00
802.52	937.00
802.77	954.00
803.02	941.00
803.27	946.00
803.52	906.00
803.77	953.00
804.02	949.00
804.27	948.00
804.52	927.00
804.77	947.00
805.02	922.00
805.27	920.00
805.51	916.00
805.76	943.00
806.01	910.00
806.26	907.00
806.51	903.00
806.76	940.00
807.01	912.00
807.26	894.00
807.51	931.00
807.76	897.00
808.00	890.00
808.25	915.00
808.50	939.00
808.75	933.00
809.00	910.00
809.25	922.00
809.50	916.00
809.75	944.00
810.00	928.00
810.24	890.00
810.49	873.00
810.74	906.00
810.99	900.00
811.24	929.00
811.49	936.00
811.74	948.00
811.99	874.00
812.24	943.00
812.48	908.00
812.73	901.00
812.98	873.00
813.23	908.00
813.48	908.00
813.73	921.00
813.98	876.00
814.23	909.00
814.47	915.00
814.72	926.00
814.97	878.00
815.22	920.00
815.47	894.00
815.72	920.00
815.97	883.00
816.22	913.00
816.46	917.00
816.71	952.00
816.96	906.00
817.21	919.00
817.46	900.00
817.71	936.00
817.96	917.00
818.20	900.00
818.45	894.00
818.70	917.00
818.95	882.00
819.20	917.00
819.45	928.00
819.70	924.00
819.94	884.00
820.19	907.00
820.44	891.00
820.69	947.00
820.94	930.00
821.19	930.00
821.44	968.00
821.68	980.00
821.93	926.00
822.18	956.00
822.43	950.00
822.68	943.00
822.93	908.00
823.17	920.00
823.42	926.00
823.67	920.00
823.92	890.00
824.17	925.00
824.42	927.00
824.67	947.00
824.91	922.00
825.16	926.00
825.41	933.00
825.66	915.00
825.91	885.00
826.16	917.00
826.40	941.00
826.65	958.00
826.90	913.00
827.15	913.00
827.40	922.00
827.65	949.00
827.89	882.00
828.14	914.00
828.39	925.00
828.64	925.00
828.89	880.00
829.13	889.00
829.38	896.00
829.63	922.00
829.88	894.00
830.13	886.00
830.38	880.00
830.62	918.00
830.87	912.00
831.12	931.00
831.37	928.00
831.62	959.00
831.86	898.00
832.11	913.00
832.36	906.00
832.61	950.00
832.86	930.00
833.10	927.00
833.35	917.00
833.60	951.00
833.85	918.00
834.10	948.00
834.35	962.00
834.59	950.00
834.84	907.00
835.09	934.00
835.34	896.00
835.59	906.00
835.83	919.00
836.08	936.00
836.33	945.00
836.58	940.00
836.83	892.00
837.07	911.00
837.32	944.00
837.57	929.00
837.82	909.00
838.06	933.00
838.31	950.00
838.56	967.00
838.81	905.00
839.06	943.00
839.30	923.00
839.55	937.00
839.80	903.00
840.05	928.00
840.30	940.00
840.54	945.00
840.79	893.00
841.04	926.00
841.29	930.00
841.53	945.00
841.78	899.00
842.03	885.00
842.28	896.00
842.53	903.00
842.77	913.00
843.02	939.00
843.27	942.00
843.52	938.00
843.76	923.00
844.01	922.00
844.26	910.00
844.51	942.00
844.75	904.00
845.00	911.00
845.25	924.00
845.50	931.00
845.75	894.00
845.99	904.00
846.24	913.00
846.49	935.00
846.74	897.00
846.98	905.00
847.23	932.00
847.48	938.00
847.73	883.00
847.97	897.00
848.22	947.00
848.47	932.00
848.72	910.00
848.96	917.00
849.21	926.00
849.46	921.00
849.71	901.00
849.95	903.00
850.20	897.00
850.45	924.00
850.70	893.00
850.94	933.00
851.19	925.00
851.44	914.00
851.69	878.00
851.93	918.00
852.18	938.00
852.43	934.00
852.68	910.00
852.92	954.00
853.17	970.00
853.42	949.00
853.66	905.00
853.91	942.00
854.16	934.00
854.41	967.00
854.65	914.00
854.90	918.00
855.15	915.00
855.40	926.00
855.64	913.00
855.89	918.00
856.14	910.00
856.39	917.00
856.63	904.00
856.88	918.00
857.13	896.00
857.37	915.00
857.62	886.00
857.87	886.00
858.12	907.00
858.36	945.00
858.61	867.00
858.86	916.00
859.10	954.00
859.35	926.00
859.60	884.00
859.85	900.00
860.09	909.00
860.34	944.00
860.59	896.00
860.83	918.00
861.08	923.00
861.33	958.00
861.58	916.00
861.82	907.00
862.07	926.00
862.32	936.00
862.56	890.00
862.81	916.00
863.06	940.00
863.30	922.00
863.55	909.00
863.80	910.00
864.05	929.00
864.29	917.00
864.54	932.00
864.79	929.00
865.03	923.00
865.28	946.00
865.53	892.00
865.77	888.00
866.02	935.00
866.27	950.00
866.51	915.00
866.76	899.00
867.01	894.00
867.26	944.00
867.50	907.00
867.75	902.00
868.00	930.00
868.24	936.00
868.49	911.00
868.74	913.00
868.98	910.00
869.23	932.00
869.48	927.00
869.72	935.00
869.97	929.00
870.22	952.00
870.46	908.00
870.71	930.00
870.96	930.00
871.20	959.00
871.45	900.00
871.70	920.00
871.94	944.00
872.19	949.00
872.44	929.00
872.68	931.00
872.93	915.00
873.18	930.00
873.42	908.00
873.67	932.00
873.92	974.00
874.16	951.00
874.41	916.00
874.66	940.00
874.90	935.00
875.15	962.00
875.40	944.00
875.64	931.00
875.89	932.00
876.14	947.00
876.38	922.00
876.63	920.00
876.88	938.00
877.12	927.00
877.37	890.00
877.62	930.00
877.86	923.00
878.11	945.00
878.36	901.00
878.60	934.00
878.85	922.00
879.09	928.00
879.34	912.00
879.59	938.00
879.83	950.00
880.08	980.00
880.33	927.00
880.57	928.00
880.82	946.00
881.07	956.00
881.31	915.00
881.56	920.00
881.80	891.00
882.05	925.00
882.30	886.00
882.54	915.00
882.79	948.00
883.04	977.00
883.28	947.00
883.53	917.00
883.77	929.00
884.02	941.00
884.27	889.00
884.51	898.00
884.76	918.00
885.01	953.00
885.25	886.00
885.50	923.00
885.74	905.00
885.99	948.00
886.24	896.00
886.48	894.00
886.73	940.00
886.98	956.00
887.22	920.00
887.47	920.00
887.71	937.00
887.96	932.00
888.21	902.00
888.45	927.00
888.70	922.00
888.94	957.00
889.19	896.00
889.44	908.00
889.68	937.00
889.93	964.00
890.17	920.00
890.42	909.00
890.67	952.00
890.91	1016.00
891.16	907.00
891.40	902.00
891.65	908.00
891.90	937.00
892.14	884.00
892.39	915.00
892.63	931.00
892.88	962.00
893.13	914.00
893.37	917.00
893.62	923.00
893.86	948.00
894.11	908.00
894.36	917.00
894.60	912.00
894.85	926.00
895.09	915.00
895.34	959.00
895.59	924.00
895.83	916.00
896.08	893.00
896.32	900.00
896.57	927.00
896.81	946.00
897.06	905.00
897.31	910.00
897.55	948.00
897.80	918.00
898.04	867.00
898.29	898.00
898.53	909.00
898.78	939.00
899.03	929.00
899.27	918.00
899.52	942.00
899.76	964.00
900.01	894.00
900.25	924.00
900.50	936.00
900.75	948.00
900.99	909.00
901.24	976.00
901.48	935.00
901.73	944.00
901.97	893.00
902.22	922.00
902.47	926.00
902.71	928.00
902.96	888.00
903.20	915.00
903.45	934.00
903.69	939.00
903.94	924.00
904.18	909.00
904.43	936.00
904.68	937.00
904.92	894.00
905.17	909.00
905.41	916.00
905.66	936.00
905.90	948.00
906.15	927.00
906.39	926.00
906.64	940.00
906.88	892.00
907.13	902.00
907.38	939.00
907.62	964.00
907.87	908.00
908.11	951.00
908.36	909.00
908.60	928.00
908.85	864.00
909.09	904.00
909.34	919.00
909.58	926.00
909.83	896.00
910.07	912.00
910.32	951.00
910.56	991.00
910.81	904.00
911.06	940.00
911.30	943.00
911.55	926.00
911.79	902.00
912.04	897.00
912.28	894.00
912.53	938.00
912.77	917.00
913.02	921.00
913.26	941.00
913.51	923.00
913.75	898.00
914.00	901.00
914.24	931.00
914.49	943.00
914.73	904.00
914.98	934.00
915.22	962.00
915.47	944.00
915.71	900.00
915.96	922.00
916.20	917.00
916.45	894.00
916.69	893.00
916.94	897.00
917.18	934.00
917.43	935.00
917.67	890.00
917.92	887.00
918.16	941.00
918.41	956.00
918.65	902.00
918.90	890.00
919.14	884.00
919.39	920.00
919.63	898.00
919.88	898.00
920.12	921.00
920.37	927.00
920.61	883.00
920.86	919.00
921.10	932.00
921.35	920.00
921.59	902.00
921.84	918.00
922.08	935.00
922.33	955.00
922.57	880.00
922.82	897.00
923.06	923.00
923.31	936.00
923.55	874.00
923.80	905.00
924.04	912.00
924.29	953.00
924.53	904.00
924.78	905.00
925.02	919.00
925.27	916.00
925.51	905.00
925.76	926.00
926.00	912.00
926.25	919.00
926.49	904.00
926.73	921.00
926.98	929.00
927.22	950.00
927.47	917.00
927.71	912.00
927.96	926.00
928.20	934.00
928.45	913.00
928.69	953.00
928.94	938.00
929.18	924.00
929.43	926.00
929.67	928.00
929.91	934.00
930.16	946.00
930.40	891.00
930.65	890.00
930.89	925.00
931.14	949.00
931.38	902.00
931.63	909.00
931.87	944.00
932.12	940.00
932.36	897.00
932.60	910.00
932.85	940.00
933.09	920.00
933.34	885.00
933.58	944.00
933.83	912.00
934.07	922.00
934.32	908.00
934.56	942.00
934.80	977.00
935.05	966.00
935.29	910.00
935.54	913.00
935.78	938.00
936.03	940.00
936.27	887.00
936.52	908.00
936.76	915.00
937.00	915.00
937.25	906.00
937.49	930.00
937.74	948.00
937.98	941.00
938.23	879.00
938.47	898.00
938.71	908.00
938.96	920.00
939.20	869.00
939.45	882.00
939.69	903.00
939.94	932.00
940.18	887.00
940.42	904.00
940.67	919.00
940.91	914.00
941.16	905.00
941.40	896.00
941.64	933.00
941.89	940.00
942.13	892.00
942.38	925.00
942.62	976.00
942.87	948.00
943.11	943.00
943.35	920.00
943.60	924.00
943.84	952.00
944.09	920.00
944.33	941.00
944.57	956.00
944.82	920.00
945.06	898.00
945.31	920.00
945.55	913.00
945.79	933.00
946.04	886.00
946.28	906.00
946.53	908.00
946.77	920.00
947.01	882.00
947.26	927.00
947.50	908.00
947.75	940.00
947.99	917.00
948.23	930.00
948.48	920.00
948.72	919.00
948.97	920.00
949.21	899.00
949.45	905.00
949.70	955.00
949.94	912.00
950.18	915.00
950.43	924.00
950.67	937.00
950.92	917.00
951.16	901.00
951.40	907.00
951.65	923.00
951.89	913.00
952.13	925.00
952.38	951.00
952.62	935.00
952.87	904.00
953.11	923.00
953.35	950.00
953.60	944.00
953.84	868.00
954.08	870.00
954.33	914.00
954.57	918.00
954.82	920.00
955.06	926.00
955.30	915.00
955.55	916.00
955.79	900.00
956.03	919.00
956.28	912.00
956.52	912.00
956.76	906.00
957.01	936.00
957.25	924.00
957.50	937.00
957.74	898.00
957.98	894.00
958.23	920.00
958.47	918.00
958.71	904.00
958.96	927.00
959.20	953.00
959.44	932.00
959.69	912.00
959.93	926.00
960.17	916.00
960.42	942.00
960.66	920.00
960.90	923.00
961.15	927.00
961.39	939.00
961.64	885.00
961.88	885.00
962.12	922.00
962.37	945.00
962.61	904.00
962.85	891.00
963.10	916.00
963.34	924.00
963.58	887.00
963.83	920.00
964.07	928.00
964.31	928.00
964.56	900.00
964.80	898.00
965.04	928.00
965.29	921.00
965.53	872.00
965.77	888.00
966.02	856.00
966.26	889.00
966.50	876.00
966.74	935.00
966.99	950.00
967.23	935.00
967.47	908.00
967.72	914.00
967.96	926.00
968.20	922.00
968.45	867.00
968.69	896.00
968.93	894.00
969.18	915.00
969.42	919.00
969.66	914.00
969.91	921.00
970.15	954.00
970.39	904.00
970.64	921.00
970.88	919.00
971.12	931.00
971.36	910.00
971.61	905.00
971.85	916.00
972.09	913.00
972.34	880.00
972.58	911.00
972.82	927.00
973.07	949.00
973.31	882.00
973.55	902.00
973.79	944.00
974.04	971.00
974.28	933.00
974.52	934.00
974.77	921.00
975.01	963.00
975.25	916.00
975.50	926.00
975.74	944.00
975.98	951.00
976.22	906.00
976.47	904.00
976.71	916.00
976.95	938.00
977.20	924.00
977.44	912.00
977.68	925.00
977.92	934.00
978.17	889.00
978.41	900.00
978.65	923.00
978.90	918.00
979.14	929.00
979.38	935.00
979.62	925.00
979.87	914.00
980.11	895.00
980.35	913.00
980.59	918.00
980.84	920.00
981.08	896.00
981.32	889.00
981.57	915.00
981.81	922.00
982.05	906.00
982.29	888.00
982.54	898.00
982.78	923.00
983.02	895.00
983.26	913.00
983.51	938.00
983.75	955.00
983.99	887.00
984.23	912.00
984.48	934.00
984.72	969.00
984.96	898.00
985.20	907.00
985.45	972.00
985.69	957.00
985.93	920.00
986.17	947.00
986.42	929.00
986.66	913.00
986.90	862.00
987.14	885.00
987.39	909.00
987.63	896.00
987.87	879.00
988.11	897.00
988.36	934.00
988.60	936.00
988.84	924.00
989.08	900.00
989.33	949.00
989.57	945.00
989.81	869.00
990.05	890.00
990.30	914.00
990.54	911.00
990.78	900.00
991.02	899.00
991.27	918.00
991.51	924.00
991.75	884.00
991.99	924.00
992.23	912.00
992.48	901.00
992.72	887.00
992.96	901.00
993.20	896.00
993.45	913.00
993.69	940.00
993.93	923.00
994.17	934.00
994.41	918.00
994.66	897.00
994.90	905.00
995.14	947.00
995.38	932.00
995.63	894.00
995.87	915.00
996.11	966.00
996.35	953.00
996.59	893.00
996.84	892.00
997.08	924.00
997.32	926.00
997.56	902.00
997.80	869.00
998.05	908.00
998.29	905.00
998.53	887.00
998.77	913.00
999.01	932.00
999.26	928.00
999.50	909.00
999.74	890.00
999.98	924.00
1000.22	935.00
1000.47	897.00
1000.71	906.00
1000.95	949.00
1001.19	935.00
1001.43	901.00
1001.68	890.00
1001.92	900.00
1002.16	909.00
1002.40	889.00
1002.64	907.00
1002.89	917.00
1003.13	911.00
1003.37	906.00
1003.61	891.00
1003.85	915.00
1004.10	917.00
1004.34	903.00
1004.58	910.00
1004.82	952.00
1005.06	953.00
1005.30	910.00
1005.55	904.00
1005.79	924.00
1006.03	921.00
1006.27	907.00
1006.51	917.00
1006.76	912.00
1007.00	939.00
1007.24	917.00
1007.48	922.00
1007.72	945.00
1007.96	942.00
1008.21	921.00
1008.45	930.00
1008.69	937.00
1008.93	939.00
1009.17	920.00
1009.41	942.00
1009.66	949.00
1009.90	908.00
1010.14	887.00
1010.38	916.00
1010.62	926.00
1010.86	962.00
1011.10	911.00
1011.35	894.00
1011.59	899.00
1011.83	905.00
1012.07	894.00
1012.31	920.00
1012.55	931.00
1012.80	935.00
1013.04	911.00
1013.28	932.00
1013.52	916.00
1013.76	947.00
1014.00	900.00
1014.24	894.00
1014.49	922.00
1014.73	947.00
1014.97	928.00
1015.21	921.00
1015.45	953.00
1015.69	927.00
1015.93	919.00
1016.18	915.00
1016.42	956.00
1016.66	960.00
1016.90	894.00
1017.14	893.00
1017.38	888.00
1017.62	928.00
1017.87	915.00
1018.11	907.00
1018.35	924.00
1018.59	943.00
1018.83	888.00
1019.07	917.00
1019.31	947.00
1019.55	942.00
1019.80	901.00
1020.04	921.00
1020.28	917.00
1020.52	926.00
1020.76	887.00
1021.00	873.00
1021.24	893.00
1021.48	901.00
1021.73	902.00
1021.97	929.00
1022.21	937.00
1022.45	948.00
1022.69	917.00
1022.93	903.00
1023.17	941.00
1023.41	988.00
1023.65	932.00
1023.90	937.00
1024.14	938.00
1024.38	920.00
1024.62	881.00
1024.86	908.00
1025.10	926.00
1025.34	910.00
1025.58	876.00
1025.82	902.00
1026.07	933.00
1026.31	930.00
1026.55	889.00
1026.79	900.00
1027.03	935.00
1027.27	940.00
1027.51	876.00
1027.75	867.00
1027.99	887.00
1028.23	956.00
1028.47	915.00
1028.72	889.00
1028.96	928.00
1029.20	915.00
1029.44	930.00
1029.68	933.00
1029.92	912.00
1030.16	929.00
1030.40	876.00
1030.64	900.00
1030.88	914.00
1031.12	904.00
1031.37	896.00
1031.61	915.00
1031.85	936.00
1032.09	947.00
1032.33	906.00
1032.57	948.00
1032.81	914.00
1033.05	942.00
1033.29	917.00
1033.53	908.00
1033.77	976.00
1034.01	961.00
1034.25	937.00
1034.50	905.00
1034.74	926.00
1034.98	954.00
1035.22	920.00
1035.46	933.00
1035.70	958.00
1035.94	956.00
1036.18	919.00
1036.42	916.00
1036.66	905.00
1036.90	918.00
1037.14	890.00
1037.38	898.00
1037.62	924.00
1037.86	916.00
1038.10	909.00
1038.35	907.00
1038.59	935.00
1038.83	934.00
1039.07	926.00
1039.31	942.00
1039.55	898.00
1039.79	910.00
1040.03	873.00
1040.27	887.00
1040.51	958.00
1040.75	960.00
1040.99	915.00
1041.23	933.00
1041.47	925.00
1041.71	958.00
1041.95	913.00
1042.19	889.00
1042.43	951.00
1042.67	969.00
1042.91	923.00
1043.15	906.00
1043.39	955.00
1043.64	940.00
1043.88	912.00
1044.12	928.00
1044.36	991.00
1044.60	970.00
1044.84	918.00
1045.08	918.00
1045.32	930.00
1045.56	941.00
1045.80	934.00
1046.04	906.00
1046.28	935.00
1046.52	936.00
1046.76	884.00
1047.00	891.00
1047.24	945.00
1047.48	914.00
1047.72	900.00
1047.96	904.00
1048.20	924.00
1048.44	927.00
1048.68	900.00
1048.92	933.00
1049.16	940.00
1049.40	936.00
1049.64	921.00
1049.88	924.00
1050.12	954.00
1050.36	961.00
1050.60	923.00
1050.84	911.00
1051.08	925.00
1051.32	903.00
1051.56	906.00
1051.80	914.00
1052.04	936.00
1052.28	964.00
1052.52	914.00
1052.76	894.00
1053.00	919.00
1053.24	918.00
1053.48	880.00
1053.72	917.00
1053.96	938.00
1054.20	948.00
1054.44	923.00
1054.68	937.00
1054.92	934.00
1055.16	908.00
1055.40	911.00
1055.64	936.00
1055.88	961.00
1056.12	970.00
1056.36	867.00
1056.60	885.00
1056.84	949.00
1057.08	946.00
1057.32	912.00
1057.56	882.00
1057.80	899.00
1058.04	938.00
1058.28	874.00
1058.52	911.00
1058.76	950.00
1059.00	954.00
1059.24	877.00
1059.48	885.00
1059.72	930.00
1059.96	921.00
1060.20	931.00
1060.44	950.00
1060.68	975.00
1060.92	931.00
1061.16	888.00
1061.40	913.00
1061.64	926.00
1061.88	936.00
1062.11	921.00
1062.35	893.00
1062.59	913.00
1062.83	954.00
1063.07	913.00
1063.31	885.00
1063.55	896.00
1063.79	945.00
1064.03	914.00
1064.27	893.00
1064.51	928.00
1064.75	941.00
1064.99	912.00
1065.23	913.00
1065.47	903.00
1065.71	938.00
1065.95	910.00
1066.19	901.00
1066.43	935.00
1066.67	954.00
1066.91	911.00
1067.15	915.00
1067.38	910.00
1067.62	937.00
1067.86	884.00
1068.10	916.00
1068.34	970.00
1068.58	964.00
1068.82	905.00
1069.06	866.00
1069.30	913.00
1069.54	945.00
1069.78	944.00
1070.02	914.00
1070.26	931.00
1070.50	965.00
1070.74	921.00
1070.98	935.00
1071.21	940.00
1071.45	942.00
1071.69	904.00
1071.93	910.00
1072.17	925.00
1072.41	942.00
1072.65	935.00
1072.89	937.00
1073.13	920.00
1073.37	918.00
1073.61	896.00
1073.85	915.00
1074.09	901.00
1074.32	908.00
1074.56	918.00
1074.80	991.00
1075.04	1205.00
1075.28	1028.00
1075.52	913.00
1075.76	924.00
1076.00	946.00
1076.24	945.00
1076.48	949.00
1076.72	942.00
1076.96	960.00
1077.19	927.00
1077.43	897.00
1077.67	934.00
1077.91	924.00
1078.15	923.00
1078.39	900.00
1078.63	902.00
1078.87	925.00
1079.11	937.00
1079.35	889.00
1079.58	889.00
1079.82	905.00
1080.06	908.00
1080.30	886.00
1080.54	939.00
1080.78	954.00
1081.02	920.00
1081.26	913.00
1081.50	934.00
1081.74	951.00
1081.97	940.00
1082.21	900.00
1082.45	929.00
1082.69	912.00
1082.93	919.00
1083.17	902.00
1083.41	901.00
1083.65	962.00
1083.88	965.00
1084.12	913.00
1084.36	916.00
1084.60	929.00
1084.84	930.00
1085.08	877.00
1085.32	907.00
1085.56	964.00
1085.80	952.00
1086.03	896.00
1086.27	902.00
1086.51	909.00
1086.75	938.00
1086.99	899.00
1087.23	882.00
1087.47	919.00
1087.70	911.00
1087.94	909.00
1088.18	939.00
1088.42	980.00
1088.66	941.00
1088.90	878.00
1089.14	902.00
1089.38	931.00
1089.61	945.00
1089.85	907.00
1090.09	883.00
1090.33	957.00
1090.57	964.00
1090.81	888.00
1091.05	909.00
1091.28	922.00
1091.52	933.00
1091.76	891.00
1092.00	898.00
1092.24	930.00
1092.48	961.00
1092.71	907.00
1092.95	936.00
1093.19	947.00
1093.43	929.00
1093.67	899.00
1093.91	930.00
1094.15	936.00
1094.38	956.00
1094.62	901.00
1094.86	898.00
1095.10	913.00
1095.34	905.00
1095.58	891.00
1095.81	917.00
1096.05	938.00
1096.29	957.00
1096.53	891.00
1096.77	920.00
1097.01	918.00
1097.24	955.00
1097.48	890.00
1097.72	916.00
1097.96	929.00
1098.20	936.00
1098.44	897.00
1098.67	891.00
1098.91	946.00
1099.15	945.00
1099.39	896.00
1099.63	891.00
1099.86	922.00
1100.10	920.00
1100.34	907.00
1100.58	910.00
1100.82	939.00
1101.06	928.00
1101.29	892.00
1101.53	916.00
1101.77	932.00
1102.01	916.00
1102.25	898.00
1102.48	922.00
1102.72	971.00
1102.96	938.00
1103.20	877.00
1103.44	913.00
1103.67	935.00
1103.91	948.00
1104.15	889.00
1104.39	896.00
1104.63	929.00
1104.86	906.00
1105.10	897.00
1105.34	930.00
1105.58	924.00
1105.82	916.00
1106.05	911.00
1106.29	922.00
1106.53	919.00
1106.77	955.00
1107.01	898.00
1107.24	933.00
1107.48	975.00
1107.72	935.00
1107.96	874.00
1108.20	916.00
1108.43	924.00
1108.67	925.00
1108.91	910.00
1109.15	912.00
1109.39	925.00
1109.62	921.00
1109.86	886.00
1110.10	903.00
1110.34	967.00
1110.57	998.00
1110.81	907.00
1111.05	915.00
1111.29	955.00
1111.53	973.00
1111.76	919.00
1112.00	964.00
1112.24	948.00
1112.48	933.00
1112.71	902.00
1112.95	909.00
1113.19	957.00
1113.43	926.00
1113.66	888.00
1113.90	918.00
1114.14	939.00
1114.38	929.00
1114.62	894.00
1114.85	931.00
1115.09	940.00
1115.33	974.00
1115.57	934.00
1115.80	903.00
1116.04	913.00
1116.28	928.00
1116.52	905.00
1116.75	921.00
1116.99	951.00
1117.23	951.00
1117.47	931.00
1117.70	932.00
1117.94	986.00
1118.18	924.00
1118.42	916.00
1118.65	932.00
1118.89	946.00
1119.13	931.00
1119.37	894.00
1119.60	921.00
1119.84	943.00
>>>>>End Processed Spectral Data<<<<<
