SpectraSuite Data File
++++++++++++++++++++++++++++++++++++
Date: Fri Nov 29 15:17:03 CET 2024
User: student
Dark Spectrum Present: No
Reference Spectrum Present: No
Number of Sampled Component Spectra: 1
Spectrometers: HR4C155
Integration Time (usec): 100000 (HR4C155)
Spectra Averaged: 1 (HR4C155)
Boxcar Smoothing: 0 (HR4C155)
Correct for Electrical Dark: No (HR4C155)
Strobe/Lamp Enabled: No (HR4C155)
Correct for Detector Non-linearity: No (HR4C155)
Correct for Stray Light: No (HR4C155)
Number of Pixels in Processed Spectrum: 3648
>>>>>Begin Processed Spectral Data<<<<<
195.39	731.00
195.66	731.00
195.93	731.00
196.20	714.00
196.46	764.00
196.73	878.00
197.00	898.00
197.27	895.00
197.54	913.00
197.81	906.00
198.08	915.00
198.35	937.00
198.61	935.00
198.88	909.00
199.15	894.00
199.42	933.00
199.69	952.00
199.96	912.00
200.23	915.00
200.49	920.00
200.76	947.00
201.03	934.00
201.30	922.00
201.57	963.00
201.84	984.00
202.11	944.00
202.38	971.00
202.64	951.00
202.91	967.00
203.18	892.00
203.45	965.00
203.72	1039.00
203.99	981.00
204.25	979.00
204.52	965.00
204.79	989.00
205.06	972.00
205.33	922.00
205.60	945.00
205.87	986.00
206.13	987.00
206.40	940.00
206.67	939.00
206.94	965.00
207.21	973.00
207.48	939.00
207.75	946.00
208.01	995.00
208.28	972.00
208.55	914.00
208.82	952.00
209.09	958.00
209.36	982.00
209.62	974.00
209.89	966.00
210.16	995.00
210.43	1012.00
210.70	942.00
210.97	957.00
211.23	980.00
211.50	1002.00
211.77	946.00
212.04	955.00
212.31	974.00
212.58	993.00
212.84	959.00
213.11	952.00
213.38	932.00
213.65	957.00
213.92	945.00
214.18	947.00
214.45	1002.00
214.72	1001.00
214.99	934.00
215.26	953.00
215.53	960.00
215.79	984.00
216.06	982.00
216.33	974.00
216.60	949.00
216.87	980.00
217.13	917.00
217.40	965.00
217.67	989.00
217.94	998.00
218.21	940.00
218.48	984.00
218.74	1013.00
219.01	985.00
219.28	921.00
219.55	924.00
219.82	972.00
220.08	983.00
220.35	936.00
220.62	949.00
220.89	988.00
221.16	1015.00
221.42	963.00
221.69	948.00
221.96	977.00
222.23	990.00
222.50	981.00
222.76	979.00
223.03	961.00
223.30	965.00
223.57	931.00
223.84	929.00
224.10	932.00
224.37	972.00
224.64	916.00
224.91	957.00
225.18	991.00
225.44	986.00
225.71	948.00
225.98	967.00
226.25	1001.00
226.51	1002.00
226.78	935.00
227.05	934.00
227.32	961.00
227.59	971.00
227.85	965.00
228.12	943.00
228.39	1001.00
228.66	1004.00
228.92	988.00
229.19	942.00
229.46	978.00
229.73	964.00
230.00	916.00
230.26	956.00
230.53	982.00
230.80	982.00
231.07	914.00
231.33	928.00
231.60	967.00
231.87	975.00
232.14	936.00
232.41	981.00
232.67	953.00
232.94	976.00
233.21	937.00
233.48	945.00
233.74	969.00
234.01	964.00
234.28	934.00
234.55	956.00
234.81	947.00
235.08	1004.00
235.35	946.00
235.62	954.00
235.88	965.00
236.15	972.00
236.42	944.00
236.69	961.00
236.95	994.00
237.22	961.00
237.49	943.00
237.76	940.00
238.02	984.00
238.29	982.00
238.56	932.00
238.83	945.00
239.09	944.00
239.36	989.00
239.63	933.00
239.90	945.00
240.16	997.00
240.43	1020.00
240.70	933.00
240.97	938.00
241.23	957.00
241.50	989.00
241.77	954.00
242.04	941.00
242.30	919.00
242.57	947.00
242.84	925.00
243.11	933.00
243.37	930.00
243.64	1003.00
243.91	936.00
244.18	941.00
244.44	933.00
244.71	936.00
244.98	962.00
245.24	944.00
245.51	969.00
245.78	1007.00
246.05	927.00
246.31	939.00
246.58	981.00
246.85	947.00
247.12	937.00
247.38	976.00
247.65	959.00
247.92	983.00
248.18	955.00
248.45	969.00
248.72	959.00
248.99	976.00
249.25	918.00
249.52	938.00
249.79	968.00
250.05	974.00
250.32	951.00
250.59	948.00
250.86	963.00
251.12	950.00
251.39	922.00
251.66	953.00
251.92	990.00
252.19	985.00
252.46	935.00
252.73	968.00
252.99	976.00
253.26	995.00
253.53	934.00
253.79	966.00
254.06	964.00
254.33	952.00
254.60	911.00
254.86	933.00
255.13	980.00
255.40	998.00
255.66	942.00
255.93	968.00
256.20	996.00
256.46	996.00
256.73	944.00
257.00	954.00
257.26	980.00
257.53	982.00
257.80	970.00
258.07	948.00
258.33	997.00
258.60	992.00
258.87	934.00
259.13	970.00
259.40	952.00
259.67	1000.00
259.93	961.00
260.20	974.00
260.47	977.00
260.73	961.00
261.00	934.00
261.27	954.00
261.53	975.00
261.80	961.00
262.07	915.00
262.34	963.00
262.60	938.00
262.87	959.00
263.14	918.00
263.40	978.00
263.67	948.00
263.94	951.00
264.20	945.00
264.47	910.00
264.74	938.00
265.00	942.00
265.27	909.00
265.54	936.00
265.80	974.00
266.07	998.00
266.34	939.00
266.60	961.00
266.87	1001.00
267.14	989.00
267.40	935.00
267.67	918.00
267.94	951.00
268.20	968.00
268.47	926.00
268.74	940.00
269.00	977.00
269.27	941.00
269.54	889.00
269.80	914.00
270.07	977.00
270.33	934.00
270.60	931.00
270.87	955.00
271.13	964.00
271.40	958.00
271.67	892.00
271.93	901.00
272.20	944.00
272.47	941.00
272.73	898.00
273.00	931.00
273.27	961.00
273.53	1000.00
273.80	965.00
274.07	944.00
274.33	944.00
274.60	969.00
274.86	942.00
275.13	934.00
275.40	945.00
275.66	993.00
275.93	937.00
276.20	921.00
276.46	955.00
276.73	939.00
277.00	945.00
277.26	954.00
277.53	985.00
277.79	977.00
278.06	942.00
278.33	982.00
278.59	969.00
278.86	938.00
279.13	923.00
279.39	946.00
279.66	986.00
279.93	988.00
280.19	937.00
280.46	929.00
280.72	955.00
280.99	988.00
281.26	937.00
281.52	915.00
281.79	965.00
282.05	974.00
282.32	934.00
282.59	931.00
282.85	988.00
283.12	977.00
283.39	926.00
283.65	941.00
283.92	959.00
284.18	973.00
284.45	941.00
284.72	962.00
284.98	970.00
285.25	951.00
285.51	965.00
285.78	959.00
286.05	938.00
286.31	950.00
286.58	905.00
286.84	911.00
287.11	940.00
287.38	954.00
287.64	952.00
287.91	931.00
288.17	953.00
288.44	958.00
288.71	899.00
288.97	942.00
289.24	984.00
289.50	962.00
289.77	946.00
290.04	914.00
290.30	936.00
290.57	982.00
290.83	938.00
291.10	944.00
291.37	965.00
291.63	950.00
291.90	968.00
292.16	952.00
292.43	965.00
292.70	967.00
292.96	912.00
293.23	915.00
293.49	942.00
293.76	961.00
294.02	928.00
294.29	924.00
294.56	973.00
294.82	980.00
295.09	946.00
295.35	935.00
295.62	991.00
295.89	988.00
296.15	928.00
296.42	914.00
296.68	932.00
296.95	968.00
297.21	958.00
297.48	937.00
297.75	960.00
298.01	989.00
298.28	942.00
298.54	958.00
298.81	982.00
299.07	989.00
299.34	932.00
299.61	936.00
299.87	973.00
300.14	954.00
300.40	961.00
300.67	944.00
300.93	985.00
301.20	1002.00
301.46	917.00
301.73	934.00
302.00	958.00
302.26	945.00
302.53	951.00
302.79	949.00
303.06	975.00
303.32	990.00
303.59	917.00
303.85	924.00
304.12	932.00
304.39	963.00
304.65	936.00
304.92	948.00
305.18	956.00
305.45	964.00
305.71	927.00
305.98	949.00
306.24	937.00
306.51	947.00
306.77	937.00
307.04	945.00
307.31	982.00
307.57	978.00
307.84	915.00
308.10	935.00
308.37	938.00
308.63	950.00
308.90	929.00
309.16	939.00
309.43	972.00
309.69	946.00
309.96	942.00
310.22	933.00
310.49	970.00
310.76	972.00
311.02	937.00
311.29	949.00
311.55	960.00
311.82	969.00
312.08	938.00
312.35	939.00
312.61	975.00
312.88	1001.00
313.14	928.00
313.41	918.00
313.67	919.00
313.94	966.00
314.20	934.00
314.47	964.00
314.73	958.00
315.00	965.00
315.26	924.00
315.53	962.00
315.79	964.00
316.06	953.00
316.32	940.00
316.59	969.00
316.85	957.00
317.12	978.00
317.39	920.00
317.65	931.00
317.92	936.00
318.18	968.00
318.45	946.00
318.71	996.00
318.98	996.00
319.24	984.00
319.51	944.00
319.77	970.00
320.04	950.00
320.30	945.00
320.57	926.00
320.83	932.00
321.10	927.00
321.36	945.00
321.63	905.00
321.89	914.00
322.16	972.00
322.42	974.00
322.69	923.00
322.95	918.00
323.22	962.00
323.48	985.00
323.75	949.00
324.01	944.00
324.28	966.00
324.54	969.00
324.80	936.00
325.07	945.00
325.33	966.00
325.60	942.00
325.86	926.00
326.13	929.00
326.39	936.00
326.66	912.00
326.92	877.00
327.19	926.00
327.45	989.00
327.72	1008.00
327.98	919.00
328.25	917.00
328.51	958.00
328.78	961.00
329.04	922.00
329.31	954.00
329.57	958.00
329.84	959.00
330.10	914.00
330.37	937.00
330.63	985.00
330.89	999.00
331.16	938.00
331.42	935.00
331.69	965.00
331.95	939.00
332.22	920.00
332.48	979.00
332.75	978.00
333.01	937.00
333.28	921.00
333.54	940.00
333.81	962.00
334.07	964.00
334.34	942.00
334.60	964.00
334.86	1000.00
335.13	997.00
335.39	938.00
335.66	944.00
335.92	966.00
336.19	964.00
336.45	910.00
336.72	940.00
336.98	946.00
337.24	974.00
337.51	906.00
337.77	933.00
338.04	976.00
338.30	956.00
338.57	918.00
338.83	956.00
339.10	960.00
339.36	960.00
339.63	939.00
339.89	911.00
340.15	949.00
340.42	968.00
340.68	954.00
340.95	958.00
341.21	956.00
341.48	972.00
341.74	917.00
342.00	919.00
342.27	955.00
342.53	970.00
342.80	933.00
343.06	935.00
343.33	949.00
343.59	978.00
343.85	931.00
344.12	956.00
344.38	1006.00
344.65	980.00
344.91	927.00
345.18	932.00
345.44	927.00
345.70	929.00
345.97	889.00
346.23	930.00
346.50	966.00
346.76	963.00
347.03	951.00
347.29	942.00
347.55	938.00
347.82	951.00
348.08	885.00
348.35	917.00
348.61	1009.00
348.87	964.00
349.14	900.00
349.40	899.00
349.67	948.00
349.93	932.00
350.20	929.00
350.46	944.00
350.72	977.00
350.99	958.00
351.25	951.00
351.52	936.00
351.78	952.00
352.04	972.00
352.31	941.00
352.57	952.00
352.84	917.00
353.10	940.00
353.36	927.00
353.63	928.00
353.89	945.00
354.16	954.00
354.42	950.00
354.68	945.00
354.95	980.00
355.21	963.00
355.48	916.00
355.74	960.00
356.00	993.00
356.27	989.00
356.53	926.00
356.80	910.00
357.06	959.00
357.32	988.00
357.59	970.00
357.85	963.00
358.11	996.00
358.38	975.00
358.64	940.00
358.91	953.00
359.17	952.00
359.43	976.00
359.70	941.00
359.96	939.00
360.22	971.00
360.49	969.00
360.75	922.00
361.02	924.00
361.28	952.00
361.54	958.00
361.81	908.00
362.07	924.00
362.33	938.00
362.60	941.00
362.86	914.00
363.13	943.00
363.39	972.00
363.65	962.00
363.92	902.00
364.18	915.00
364.44	950.00
364.71	971.00
364.97	928.00
365.24	924.00
365.50	955.00
365.76	975.00
366.03	917.00
366.29	950.00
366.55	969.00
366.82	932.00
367.08	893.00
367.34	925.00
367.61	961.00
367.87	977.00
368.13	937.00
368.40	934.00
368.66	986.00
368.93	977.00
369.19	913.00
369.45	910.00
369.72	950.00
369.98	939.00
370.24	897.00
370.51	922.00
370.77	953.00
371.03	958.00
371.30	950.00
371.56	955.00
371.82	968.00
372.09	959.00
372.35	947.00
372.61	959.00
372.88	968.00
373.14	973.00
373.40	951.00
373.67	939.00
373.93	962.00
374.19	981.00
374.46	939.00
374.72	921.00
374.98	961.00
375.25	970.00
375.51	945.00
375.77	953.00
376.04	969.00
376.30	967.00
376.56	909.00
376.83	937.00
377.09	968.00
377.35	965.00
377.62	957.00
377.88	941.00
378.14	932.00
378.41	972.00
378.67	943.00
378.93	945.00
379.20	985.00
379.46	964.00
379.72	928.00
379.99	920.00
380.25	936.00
380.51	930.00
380.77	912.00
381.04	922.00
381.30	964.00
381.56	983.00
381.83	945.00
382.09	930.00
382.35	940.00
382.62	971.00
382.88	953.00
383.14	942.00
383.41	951.00
383.67	932.00
383.93	946.00
384.20	940.00
384.46	961.00
384.72	967.00
384.98	926.00
385.25	956.00
385.51	989.00
385.77	954.00
386.04	907.00
386.30	905.00
386.56	980.00
386.82	1015.00
387.09	953.00
387.35	979.00
387.61	1032.00
387.88	973.00
388.14	920.00
388.40	947.00
388.67	935.00
388.93	933.00
389.19	926.00
389.45	928.00
389.72	956.00
389.98	970.00
390.24	924.00
390.51	911.00
390.77	963.00
391.03	971.00
391.29	932.00
391.56	932.00
391.82	955.00
392.08	999.00
392.35	934.00
392.61	942.00
392.87	965.00
393.13	988.00
393.40	929.00
393.66	922.00
393.92	962.00
394.18	968.00
394.45	911.00
394.71	915.00
394.97	948.00
395.24	932.00
395.50	908.00
395.76	951.00
396.02	967.00
396.29	949.00
396.55	888.00
396.81	866.00
397.07	935.00
397.34	937.00
397.60	910.00
397.86	907.00
398.12	938.00
398.39	980.00
398.65	935.00
398.91	936.00
399.17	947.00
399.44	909.00
399.70	867.00
399.96	901.00
400.22	920.00
400.49	963.00
400.75	941.00
401.01	946.00
401.27	939.00
401.54	969.00
401.80	920.00
402.06	915.00
402.32	969.00
402.59	956.00
402.85	922.00
403.11	944.00
403.37	928.00
403.64	969.00
403.90	919.00
404.16	937.00
404.42	947.00
404.69	934.00
404.95	916.00
405.21	909.00
405.47	930.00
405.74	952.00
406.00	924.00
406.26	929.00
406.52	965.00
406.79	986.00
407.05	930.00
407.31	942.00
407.57	944.00
407.83	951.00
408.10	887.00
408.36	907.00
408.62	943.00
408.88	947.00
409.15	919.00
409.41	884.00
409.67	909.00
409.93	960.00
410.20	942.00
410.46	925.00
410.72	926.00
410.98	949.00
411.24	922.00
411.51	951.00
411.77	932.00
412.03	951.00
412.29	949.00
412.55	961.00
412.82	952.00
413.08	974.00
413.34	945.00
413.60	939.00
413.87	955.00
414.13	964.00
414.39	915.00
414.65	949.00
414.91	968.00
415.18	929.00
415.44	898.00
415.70	908.00
415.96	934.00
416.22	960.00
416.49	930.00
416.75	929.00
417.01	958.00
417.27	961.00
417.53	936.00
417.80	946.00
418.06	970.00
418.32	970.00
418.58	907.00
418.84	918.00
419.11	954.00
419.37	963.00
419.63	927.00
419.89	938.00
420.15	946.00
420.42	937.00
420.68	908.00
420.94	945.00
421.20	932.00
421.46	936.00
421.72	958.00
421.99	935.00
422.25	950.00
422.51	962.00
422.77	934.00
423.03	940.00
423.30	969.00
423.56	969.00
423.82	970.00
424.08	942.00
424.34	969.00
424.60	972.00
424.87	921.00
425.13	919.00
425.39	945.00
425.65	943.00
425.91	921.00
426.18	933.00
426.44	951.00
426.70	908.00
426.96	881.00
427.22	887.00
427.48	917.00
427.75	935.00
428.01	883.00
428.27	921.00
428.53	974.00
428.79	936.00
429.05	909.00
429.32	915.00
429.58	976.00
429.84	932.00
430.10	925.00
430.36	942.00
430.62	970.00
430.88	978.00
431.15	956.00
431.41	954.00
431.67	955.00
431.93	945.00
432.19	899.00
432.45	944.00
432.72	958.00
432.98	949.00
433.24	964.00
433.50	1050.00
433.76	953.00
434.02	949.00
434.28	918.00
434.55	920.00
434.81	945.00
435.07	965.00
435.33	904.00
435.59	929.00
435.85	941.00
436.11	969.00
436.38	914.00
436.64	913.00
436.90	937.00
437.16	940.00
437.42	927.00
437.68	916.00
437.94	948.00
438.21	962.00
438.47	949.00
438.73	939.00
438.99	940.00
439.25	944.00
439.51	914.00
439.77	920.00
440.03	949.00
440.30	961.00
440.56	943.00
440.82	957.00
441.08	990.00
441.34	959.00
441.60	908.00
441.86	931.00
442.12	966.00
442.39	949.00
442.65	905.00
442.91	915.00
443.17	933.00
443.43	958.00
443.69	941.00
443.95	909.00
444.21	925.00
444.47	962.00
444.74	922.00
445.00	934.00
445.26	934.00
445.52	938.00
445.78	913.00
446.04	925.00
446.30	976.00
446.56	953.00
446.82	902.00
447.09	933.00
447.35	952.00
447.61	965.00
447.87	927.00
448.13	938.00
448.39	984.00
448.65	963.00
448.91	919.00
449.17	919.00
449.43	921.00
449.70	938.00
449.96	898.00
450.22	907.00
450.48	939.00
450.74	978.00
451.00	924.00
451.26	932.00
451.52	938.00
451.78	923.00
452.04	922.00
452.31	951.00
452.57	956.00
452.83	937.00
453.09	926.00
453.35	931.00
453.61	949.00
453.87	958.00
454.13	932.00
454.39	933.00
454.65	993.00
454.91	976.00
455.17	907.00
455.44	918.00
455.70	959.00
455.96	951.00
456.22	894.00
456.48	913.00
456.74	938.00
457.00	924.00
457.26	866.00
457.52	911.00
457.78	939.00
458.04	934.00
458.30	897.00
458.56	942.00
458.82	928.00
459.09	916.00
459.35	867.00
459.61	911.00
459.87	953.00
460.13	956.00
460.39	909.00
460.65	918.00
460.91	961.00
461.17	925.00
461.43	900.00
461.69	913.00
461.95	955.00
462.21	949.00
462.47	929.00
462.73	960.00
462.99	965.00
463.26	953.00
463.52	905.00
463.78	891.00
464.04	916.00
464.30	949.00
464.56	927.00
464.82	930.00
465.08	979.00
465.34	985.00
465.60	948.00
465.86	931.00
466.12	926.00
466.38	920.00
466.64	916.00
466.90	927.00
467.16	951.00
467.42	972.00
467.68	922.00
467.94	929.00
468.20	983.00
468.46	951.00
468.72	918.00
468.98	926.00
469.25	944.00
469.51	913.00
469.77	932.00
470.03	942.00
470.29	950.00
470.55	949.00
470.81	921.00
471.07	936.00
471.33	948.00
471.59	956.00
471.85	922.00
472.11	929.00
472.37	964.00
472.63	947.00
472.89	934.00
473.15	927.00
473.41	958.00
473.67	945.00
473.93	884.00
474.19	893.00
474.45	919.00
474.71	955.00
474.97	919.00
475.23	901.00
475.49	909.00
475.75	913.00
476.01	916.00
476.27	937.00
476.53	967.00
476.79	966.00
477.05	936.00
477.31	921.00
477.57	942.00
477.83	945.00
478.09	878.00
478.35	934.00
478.61	969.00
478.87	943.00
479.13	914.00
479.39	951.00
479.65	956.00
479.91	965.00
480.17	921.00
480.43	939.00
480.69	948.00
480.95	957.00
481.21	927.00
481.47	940.00
481.73	940.00
481.99	931.00
482.25	902.00
482.51	894.00
482.77	950.00
483.03	945.00
483.29	930.00
483.55	923.00
483.81	972.00
484.07	965.00
484.33	918.00
484.59	913.00
484.85	961.00
485.11	953.00
485.37	934.00
485.63	928.00
485.89	918.00
486.15	917.00
486.41	886.00
486.67	909.00
486.93	945.00
487.19	929.00
487.45	911.00
487.71	903.00
487.97	970.00
488.23	955.00
488.49	905.00
488.75	897.00
489.01	948.00
489.27	983.00
489.53	923.00
489.79	911.00
490.05	925.00
490.31	979.00
490.57	956.00
490.83	980.00
491.08	924.00
491.34	905.00
491.60	912.00
491.86	949.00
492.12	977.00
492.38	979.00
492.64	912.00
492.90	907.00
493.16	966.00
493.42	915.00
493.68	895.00
493.94	941.00
494.20	950.00
494.46	949.00
494.72	917.00
494.98	922.00
495.24	921.00
495.50	935.00
495.76	946.00
496.02	949.00
496.28	971.00
496.54	964.00
496.80	933.00
497.05	910.00
497.31	951.00
497.57	949.00
497.83	916.00
498.09	946.00
498.35	964.00
498.61	959.00
498.87	922.00
499.13	925.00
499.39	933.00
499.65	931.00
499.91	946.00
500.17	920.00
500.43	992.00
500.69	1020.00
500.95	912.00
501.20	936.00
501.46	946.00
501.72	966.00
501.98	964.00
502.24	953.00
502.50	966.00
502.76	932.00
503.02	917.00
503.28	929.00
503.54	991.00
503.80	989.00
504.06	938.00
504.32	957.00
504.58	946.00
504.83	940.00
505.09	905.00
505.35	936.00
505.61	934.00
505.87	943.00
506.13	929.00
506.39	909.00
506.65	963.00
506.91	998.00
507.17	917.00
507.43	914.00
507.68	927.00
507.94	967.00
508.20	907.00
508.46	901.00
508.72	950.00
508.98	965.00
509.24	906.00
509.50	938.00
509.76	925.00
510.02	941.00
510.28	913.00
510.53	921.00
510.79	959.00
511.05	938.00
511.31	909.00
511.57	925.00
511.83	935.00
512.09	965.00
512.35	929.00
512.61	941.00
512.87	956.00
513.12	953.00
513.38	892.00
513.64	914.00
513.90	954.00
514.16	977.00
514.42	947.00
514.68	946.00
514.94	961.00
515.20	966.00
515.45	919.00
515.71	925.00
515.97	936.00
516.23	940.00
516.49	917.00
516.75	926.00
517.01	923.00
517.27	922.00
517.53	921.00
517.78	914.00
518.04	946.00
518.30	926.00
518.56	913.00
518.82	949.00
519.08	980.00
519.34	930.00
519.60	912.00
519.85	937.00
520.11	936.00
520.37	938.00
520.63	915.00
520.89	913.00
521.15	936.00
521.41	944.00
521.66	909.00
521.92	919.00
522.18	984.00
522.44	982.00
522.70	923.00
522.96	890.00
523.22	947.00
523.48	935.00
523.73	914.00
523.99	919.00
524.25	980.00
524.51	971.00
524.77	904.00
525.03	909.00
525.29	961.00
525.54	974.00
525.80	929.00
526.06	921.00
526.32	940.00
526.58	931.00
526.84	913.00
527.09	925.00
527.35	926.00
527.61	935.00
527.87	914.00
528.13	950.00
528.39	936.00
528.65	939.00
528.90	890.00
529.16	900.00
529.42	915.00
529.68	926.00
529.94	902.00
530.20	922.00
530.45	909.00
530.71	930.00
530.97	885.00
531.23	929.00
531.49	950.00
531.75	916.00
532.00	923.00
532.26	914.00
532.52	936.00
532.78	935.00
533.04	920.00
533.30	906.00
533.55	938.00
533.81	940.00
534.07	893.00
534.33	908.00
534.59	944.00
534.85	952.00
535.10	901.00
535.36	899.00
535.62	945.00
535.88	937.00
536.14	893.00
536.39	910.00
536.65	960.00
536.91	963.00
537.17	914.00
537.43	934.00
537.69	970.00
537.94	931.00
538.20	897.00
538.46	926.00
538.72	947.00
538.98	949.00
539.23	899.00
539.49	887.00
539.75	953.00
540.01	953.00
540.27	916.00
540.52	960.00
540.78	953.00
541.04	951.00
541.30	907.00
541.56	895.00
541.81	973.00
542.07	1016.00
542.33	924.00
542.59	922.00
542.85	939.00
543.10	936.00
543.36	898.00
543.62	928.00
543.88	932.00
544.14	922.00
544.39	918.00
544.65	923.00
544.91	963.00
545.17	932.00
545.43	925.00
545.68	928.00
545.94	968.00
546.20	974.00
546.46	906.00
546.71	911.00
546.97	936.00
547.23	954.00
547.49	913.00
547.75	917.00
548.00	948.00
548.26	953.00
548.52	909.00
548.78	905.00
549.03	937.00
549.29	953.00
549.55	904.00
549.81	923.00
550.07	954.00
550.32	943.00
550.58	903.00
550.84	937.00
551.10	942.00
551.35	941.00
551.61	911.00
551.87	928.00
552.13	931.00
552.39	918.00
552.64	888.00
552.90	923.00
553.16	948.00
553.42	941.00
553.67	902.00
553.93	916.00
554.19	955.00
554.45	974.00
554.70	919.00
554.96	902.00
555.22	936.00
555.48	955.00
555.73	907.00
555.99	912.00
556.25	949.00
556.51	942.00
556.76	902.00
557.02	929.00
557.28	959.00
557.54	942.00
557.79	904.00
558.05	939.00
558.31	930.00
558.57	937.00
558.82	906.00
559.08	871.00
559.34	897.00
559.60	927.00
559.85	913.00
560.11	923.00
560.37	927.00
560.63	929.00
560.88	910.00
561.14	901.00
561.40	943.00
561.66	910.00
561.91	903.00
562.17	918.00
562.43	954.00
562.68	965.00
562.94	930.00
563.20	940.00
563.46	965.00
563.71	970.00
563.97	917.00
564.23	931.00
564.49	953.00
564.74	940.00
565.00	897.00
565.26	913.00
565.51	945.00
565.77	934.00
566.03	910.00
566.29	931.00
566.54	910.00
566.80	932.00
567.06	919.00
567.31	950.00
567.57	969.00
567.83	922.00
568.09	925.00
568.34	907.00
568.60	940.00
568.86	977.00
569.11	945.00
569.37	907.00
569.63	938.00
569.89	954.00
570.14	880.00
570.40	903.00
570.66	921.00
570.91	924.00
571.17	905.00
571.43	947.00
571.69	962.00
571.94	973.00
572.20	907.00
572.46	920.00
572.71	975.00
572.97	955.00
573.23	910.00
573.48	914.00
573.74	925.00
574.00	943.00
574.26	905.00
574.51	925.00
574.77	972.00
575.03	959.00
575.28	919.00
575.54	893.00
575.80	902.00
576.05	940.00
576.31	912.00
576.57	898.00
576.82	946.00
577.08	941.00
577.34	900.00
577.59	901.00
577.85	982.00
578.11	946.00
578.37	908.00
578.62	915.00
578.88	960.00
579.14	975.00
579.39	933.00
579.65	943.00
579.91	942.00
580.16	949.00
580.42	916.00
580.68	937.00
580.93	967.00
581.19	928.00
581.45	892.00
581.70	936.00
581.96	960.00
582.22	957.00
582.47	922.00
582.73	938.00
582.99	979.00
583.24	957.00
583.50	888.00
583.76	908.00
584.01	932.00
584.27	963.00
584.53	940.00
584.78	938.00
585.04	926.00
585.30	949.00
585.55	931.00
585.81	918.00
586.07	972.00
586.32	987.00
586.58	927.00
586.83	928.00
587.09	952.00
587.35	954.00
587.60	903.00
587.86	915.00
588.12	933.00
588.37	961.00
588.63	933.00
588.89	935.00
589.14	967.00
589.40	955.00
589.66	910.00
589.91	944.00
590.17	960.00
590.43	904.00
590.68	906.00
590.94	923.00
591.19	950.00
591.45	942.00
591.71	932.00
591.96	925.00
592.22	949.00
592.48	964.00
592.73	904.00
592.99	909.00
593.25	960.00
593.50	963.00
593.76	914.00
594.01	940.00
594.27	958.00
594.53	964.00
594.78	930.00
595.04	927.00
595.30	936.00
595.55	949.00
595.81	925.00
596.06	948.00
596.32	965.00
596.58	983.00
596.83	945.00
597.09	972.00
597.35	973.00
597.60	951.00
597.86	919.00
598.11	942.00
598.37	985.00
598.63	973.00
598.88	934.00
599.14	921.00
599.39	958.00
599.65	958.00
599.91	904.00
600.16	944.00
600.42	972.00
600.67	977.00
600.93	929.00
601.19	962.00
601.44	1011.00
601.70	972.00
601.95	929.00
602.21	944.00
602.47	950.00
602.72	977.00
602.98	938.00
603.23	957.00
603.49	979.00
603.75	972.00
604.00	956.00
604.26	964.00
604.51	964.00
604.77	987.00
605.03	933.00
605.28	929.00
605.54	1001.00
605.79	1020.00
606.05	930.00
606.31	936.00
606.56	978.00
606.82	997.00
607.07	976.00
607.33	1001.00
607.59	1029.00
607.84	998.00
608.10	953.00
608.35	984.00
608.61	1020.00
608.86	1011.00
609.12	982.00
609.38	1004.00
609.63	1056.00
609.89	1027.00
610.14	963.00
610.40	992.00
610.65	1027.00
610.91	1037.00
611.17	992.00
611.42	1007.00
611.68	1046.00
611.93	1066.00
612.19	1037.00
612.44	1047.00
612.70	1055.00
612.96	1036.00
613.21	1008.00
613.47	1014.00
613.72	1044.00
613.98	1069.00
614.23	1055.00
614.49	1064.00
614.75	1115.00
615.00	1116.00
615.26	1102.00
615.51	1086.00
615.77	1094.00
616.02	1108.00
616.28	1060.00
616.53	1099.00
616.79	1123.00
617.05	1126.00
617.30	1117.00
617.56	1134.00
617.81	1193.00
618.07	1193.00
618.32	1200.00
618.58	1233.00
618.83	1284.00
619.09	1287.00
619.34	1209.00
619.60	1231.00
619.86	1256.00
620.11	1271.00
620.37	1274.00
620.62	1314.00
620.88	1353.00
621.13	1364.00
621.39	1348.00
621.64	1357.00
621.90	1436.00
622.15	1455.00
622.41	1443.00
622.66	1466.00
622.92	1497.00
623.18	1530.00
623.43	1512.00
623.69	1568.00
623.94	1664.00
624.20	1660.00
624.45	1649.00
624.71	1681.00
624.96	1721.00
625.22	1814.00
625.47	1860.00
625.73	1932.00
625.98	2004.00
626.24	2034.00
626.49	2003.00
626.75	2008.00
627.00	2025.00
627.26	2079.00
627.51	2232.00
627.77	2393.00
628.02	2443.00
628.28	2433.00
628.53	2363.00
628.79	2376.00
629.05	2411.00
629.30	2450.00
629.56	2504.00
629.81	2607.00
630.07	2676.00
630.32	2722.00
630.58	2746.00
630.83	3002.00
631.09	3304.00
631.34	3340.00
631.60	3452.00
631.85	3588.00
632.11	3734.00
632.36	3958.00
632.62	4141.00
632.87	4308.00
633.13	4267.00
633.38	4138.00
633.64	3976.00
633.89	4023.00
634.15	4371.00
634.40	4894.00
634.66	5360.00
634.91	5617.00
635.17	5656.00
635.42	5752.00
635.68	5683.00
635.93	5426.00
636.18	5307.00
636.44	5228.00
636.69	5261.00
636.95	5498.00
637.20	5966.00
637.46	6159.00
637.71	5812.00
637.97	5647.00
638.22	5315.00
638.48	4855.00
638.73	4946.00
638.99	5194.00
639.24	4999.00
639.50	4876.00
639.75	4626.00
640.01	4118.00
640.26	4031.00
640.52	4074.00
640.77	4026.00
641.03	4312.00
641.28	4377.00
641.54	3970.00
641.79	3435.00
642.04	3163.00
642.30	3060.00
642.55	2844.00
642.81	2614.00
643.06	2699.00
643.32	2918.00
643.57	2899.00
643.83	2700.00
644.08	2502.00
644.34	2370.00
644.59	2294.00
644.85	2207.00
645.10	2098.00
645.35	1977.00
645.61	1887.00
645.86	1817.00
646.12	1811.00
646.37	1825.00
646.63	1753.00
646.88	1649.00
647.14	1709.00
647.39	1717.00
647.65	1657.00
647.90	1494.00
648.15	1475.00
648.41	1469.00
648.66	1508.00
648.92	1421.00
649.17	1375.00
649.43	1371.00
649.68	1316.00
649.94	1302.00
650.19	1257.00
650.44	1259.00
650.70	1230.00
650.95	1175.00
651.21	1214.00
651.46	1247.00
651.72	1220.00
651.97	1197.00
652.23	1155.00
652.48	1148.00
652.73	1164.00
652.99	1108.00
653.24	1102.00
653.50	1068.00
653.75	1060.00
654.01	1046.00
654.26	1057.00
654.51	1084.00
654.77	1099.00
655.02	1054.00
655.28	1010.00
655.53	1018.00
655.79	1043.00
656.04	1030.00
656.29	1037.00
656.55	1018.00
656.80	1050.00
657.06	1003.00
657.31	1001.00
657.56	1005.00
657.82	988.00
658.07	961.00
658.33	999.00
658.58	1010.00
658.84	1011.00
659.09	973.00
659.34	991.00
659.60	996.00
659.85	984.00
660.11	949.00
660.36	979.00
660.61	994.00
660.87	959.00
661.12	909.00
661.38	948.00
661.63	971.00
661.88	1004.00
662.14	972.00
662.39	961.00
662.65	1009.00
662.90	1014.00
663.15	927.00
663.41	952.00
663.66	996.00
663.92	1022.00
664.17	935.00
664.42	962.00
664.68	987.00
664.93	976.00
665.19	942.00
665.44	938.00
665.69	946.00
665.95	961.00
666.20	918.00
666.45	954.00
666.71	980.00
666.96	980.00
667.22	910.00
667.47	920.00
667.72	923.00
667.98	948.00
668.23	910.00
668.49	946.00
668.74	970.00
668.99	978.00
669.25	924.00
669.50	920.00
669.75	965.00
670.01	968.00
670.26	901.00
670.52	907.00
670.77	957.00
671.02	937.00
671.28	916.00
671.53	944.00
671.78	950.00
672.04	944.00
672.29	920.00
672.54	932.00
672.80	947.00
673.05	949.00
673.31	911.00
673.56	952.00
673.81	974.00
674.07	958.00
674.32	936.00
674.57	939.00
674.83	928.00
675.08	954.00
675.33	929.00
675.59	929.00
675.84	953.00
676.09	940.00
676.35	921.00
676.60	925.00
676.86	938.00
677.11	980.00
677.36	931.00
677.62	930.00
677.87	973.00
678.12	987.00
678.38	909.00
678.63	922.00
678.88	966.00
679.14	978.00
679.39	897.00
679.64	932.00
679.90	934.00
680.15	955.00
680.40	950.00
680.66	934.00
680.91	940.00
681.16	929.00
681.42	914.00
681.67	910.00
681.92	931.00
682.18	972.00
682.43	908.00
682.68	904.00
682.94	931.00
683.19	915.00
683.44	909.00
683.70	928.00
683.95	940.00
684.20	936.00
684.46	924.00
684.71	934.00
684.96	932.00
685.22	964.00
685.47	925.00
685.72	936.00
685.98	958.00
686.23	910.00
686.48	900.00
686.74	956.00
686.99	988.00
687.24	954.00
687.50	905.00
687.75	909.00
688.00	930.00
688.25	944.00
688.51	948.00
688.76	953.00
689.01	911.00
689.27	918.00
689.52	869.00
689.77	916.00
690.03	923.00
690.28	928.00
690.53	900.00
690.79	939.00
691.04	944.00
691.29	949.00
691.54	878.00
691.80	909.00
692.05	930.00
692.30	949.00
692.56	926.00
692.81	924.00
693.06	906.00
693.32	925.00
693.57	922.00
693.82	945.00
694.07	956.00
694.33	941.00
694.58	916.00
694.83	934.00
695.09	913.00
695.34	951.00
695.59	924.00
695.84	915.00
696.10	937.00
696.35	944.00
696.60	893.00
696.86	895.00
697.11	946.00
697.36	946.00
697.61	903.00
697.87	926.00
698.12	922.00
698.37	932.00
698.63	920.00
698.88	914.00
699.13	938.00
699.38	920.00
699.64	892.00
699.89	918.00
700.14	916.00
700.39	944.00
700.65	910.00
700.90	943.00
701.15	929.00
701.40	962.00
701.66	914.00
701.91	927.00
702.16	919.00
702.42	923.00
702.67	883.00
702.92	894.00
703.17	899.00
703.43	924.00
703.68	918.00
703.93	941.00
704.18	987.00
704.44	953.00
704.69	916.00
704.94	933.00
705.19	941.00
705.45	965.00
705.70	932.00
705.95	901.00
706.20	922.00
706.46	945.00
706.71	904.00
706.96	913.00
707.21	929.00
707.47	938.00
707.72	913.00
707.97	928.00
708.22	961.00
708.48	973.00
708.73	897.00
708.98	894.00
709.23	931.00
709.49	929.00
709.74	911.00
709.99	913.00
710.24	927.00
710.50	936.00
710.75	926.00
711.00	954.00
711.25	954.00
711.50	921.00
711.76	897.00
712.01	906.00
712.26	915.00
712.51	935.00
712.77	906.00
713.02	920.00
713.27	916.00
713.52	926.00
713.78	917.00
714.03	934.00
714.28	917.00
714.53	940.00
714.78	908.00
715.04	942.00
715.29	950.00
715.54	931.00
715.79	883.00
716.05	924.00
716.30	946.00
716.55	944.00
716.80	913.00
717.05	935.00
717.31	943.00
717.56	943.00
717.81	904.00
718.06	889.00
718.31	908.00
718.57	930.00
718.82	907.00
719.07	959.00
719.32	938.00
719.57	942.00
719.83	912.00
720.08	927.00
720.33	909.00
720.58	907.00
720.83	873.00
721.09	944.00
721.34	946.00
721.59	969.00
721.84	900.00
722.09	913.00
722.35	925.00
722.60	924.00
722.85	900.00
723.10	933.00
723.35	927.00
723.61	956.00
723.86	951.00
724.11	946.00
724.36	937.00
724.61	929.00
724.87	904.00
725.12	904.00
725.37	900.00
725.62	895.00
725.87	892.00
726.12	912.00
726.38	920.00
726.63	939.00
726.88	916.00
727.13	937.00
727.38	938.00
727.64	950.00
727.89	910.00
728.14	902.00
728.39	901.00
728.64	946.00
728.89	923.00
729.15	930.00
729.40	942.00
729.65	950.00
729.90	904.00
730.15	927.00
730.40	929.00
730.66	924.00
730.91	908.00
731.16	918.00
731.41	923.00
731.66	932.00
731.91	921.00
732.17	954.00
732.42	941.00
732.67	930.00
732.92	900.00
733.17	921.00
733.42	919.00
733.68	915.00
733.93	888.00
734.18	917.00
734.43	898.00
734.68	909.00
734.93	911.00
735.18	909.00
735.44	934.00
735.69	952.00
735.94	898.00
736.19	920.00
736.44	930.00
736.69	973.00
736.95	916.00
737.20	928.00
737.45	929.00
737.70	930.00
737.95	921.00
738.20	943.00
738.45	927.00
738.70	942.00
738.96	931.00
739.21	950.00
739.46	940.00
739.71	963.00
739.96	938.00
740.21	947.00
740.46	993.00
740.72	966.00
740.97	917.00
741.22	954.00
741.47	916.00
741.72	933.00
741.97	896.00
742.22	913.00
742.47	952.00
742.73	944.00
742.98	891.00
743.23	888.00
743.48	913.00
743.73	934.00
743.98	909.00
744.23	926.00
744.48	938.00
744.74	921.00
744.99	892.00
745.24	936.00
745.49	934.00
745.74	937.00
745.99	907.00
746.24	933.00
746.49	924.00
746.74	924.00
747.00	913.00
747.25	917.00
747.50	894.00
747.75	907.00
748.00	878.00
748.25	898.00
748.50	925.00
748.75	967.00
749.00	958.00
749.26	961.00
749.51	949.00
749.76	951.00
750.01	899.00
750.26	934.00
750.51	965.00
750.76	940.00
751.01	898.00
751.26	921.00
751.51	942.00
751.77	952.00
752.02	929.00
752.27	924.00
752.52	934.00
752.77	964.00
753.02	919.00
753.27	923.00
753.52	923.00
753.77	912.00
754.02	911.00
754.27	921.00
754.52	893.00
754.78	939.00
755.03	911.00
755.28	920.00
755.53	940.00
755.78	936.00
756.03	895.00
756.28	935.00
756.53	937.00
756.78	945.00
757.03	910.00
757.28	934.00
757.53	933.00
757.79	903.00
758.04	889.00
758.29	959.00
758.54	953.00
758.79	941.00
759.04	894.00
759.29	910.00
759.54	923.00
759.79	915.00
760.04	914.00
760.29	912.00
760.54	913.00
760.79	928.00
761.04	901.00
761.29	917.00
761.55	900.00
761.80	929.00
762.05	888.00
762.30	918.00
762.55	921.00
762.80	948.00
763.05	941.00
763.30	940.00
763.55	950.00
763.80	930.00
764.05	882.00
764.30	941.00
764.55	958.00
764.80	941.00
765.05	894.00
765.30	946.00
765.55	936.00
765.80	929.00
766.05	884.00
766.30	904.00
766.56	918.00
766.81	934.00
767.06	920.00
767.31	931.00
767.56	929.00
767.81	931.00
768.06	912.00
768.31	956.00
768.56	950.00
768.81	961.00
769.06	896.00
769.31	926.00
769.56	915.00
769.81	940.00
770.06	899.00
770.31	897.00
770.56	922.00
770.81	894.00
771.06	894.00
771.31	930.00
771.56	928.00
771.81	929.00
772.06	895.00
772.31	932.00
772.56	937.00
772.81	958.00
773.06	906.00
773.31	924.00
773.56	928.00
773.81	907.00
774.06	894.00
774.31	937.00
774.56	950.00
774.81	953.00
775.06	918.00
775.31	937.00
775.56	946.00
775.81	932.00
776.06	893.00
776.31	917.00
776.56	908.00
776.82	925.00
777.07	887.00
777.32	917.00
777.57	920.00
777.82	961.00
778.07	905.00
778.32	920.00
778.57	933.00
778.82	941.00
779.07	906.00
779.32	913.00
779.57	894.00
779.82	905.00
780.07	886.00
780.32	919.00
780.56	921.00
780.81	955.00
781.06	903.00
781.31	901.00
781.56	937.00
781.81	951.00
782.06	913.00
782.31	933.00
782.56	919.00
782.81	942.00
783.06	912.00
783.31	917.00
783.56	915.00
783.81	949.00
784.06	907.00
784.31	895.00
784.56	899.00
784.81	954.00
785.06	931.00
785.31	927.00
785.56	900.00
785.81	906.00
786.06	880.00
786.31	931.00
786.56	915.00
786.81	934.00
787.06	927.00
787.31	908.00
787.56	919.00
787.81	897.00
788.06	884.00
788.31	928.00
788.56	919.00
788.81	959.00
789.06	917.00
789.31	905.00
789.56	914.00
789.81	927.00
790.06	890.00
790.31	942.00
790.56	925.00
790.80	918.00
791.05	902.00
791.30	888.00
791.55	903.00
791.80	930.00
792.05	922.00
792.30	910.00
792.55	917.00
792.80	937.00
793.05	889.00
793.30	919.00
793.55	919.00
793.80	929.00
794.05	904.00
794.30	927.00
794.55	926.00
794.80	936.00
795.05	890.00
795.30	908.00
795.54	903.00
795.79	935.00
796.04	892.00
796.29	929.00
796.54	924.00
796.79	941.00
797.04	905.00
797.29	938.00
797.54	941.00
797.79	941.00
798.04	906.00
798.29	899.00
798.54	883.00
798.79	895.00
799.04	894.00
799.29	930.00
799.53	922.00
799.78	917.00
800.03	896.00
800.28	888.00
800.53	908.00
800.78	961.00
801.03	920.00
801.28	926.00
801.53	918.00
801.78	950.00
802.03	917.00
802.28	927.00
802.52	955.00
802.77	974.00
803.02	931.00
803.27	918.00
803.52	906.00
803.77	945.00
804.02	927.00
804.27	946.00
804.52	930.00
804.77	958.00
805.02	929.00
805.27	929.00
805.51	921.00
805.76	958.00
806.01	908.00
806.26	912.00
806.51	924.00
806.76	981.00
807.01	937.00
807.26	908.00
807.51	932.00
807.76	916.00
808.00	897.00
808.25	919.00
808.50	925.00
808.75	926.00
809.00	874.00
809.25	913.00
809.50	929.00
809.75	946.00
810.00	929.00
810.24	910.00
810.49	883.00
810.74	897.00
810.99	896.00
811.24	928.00
811.49	936.00
811.74	950.00
811.99	882.00
812.24	912.00
812.48	902.00
812.73	896.00
812.98	881.00
813.23	893.00
813.48	931.00
813.73	929.00
813.98	883.00
814.23	896.00
814.47	896.00
814.72	898.00
814.97	880.00
815.22	932.00
815.47	913.00
815.72	922.00
815.97	882.00
816.22	892.00
816.46	906.00
816.71	936.00
816.96	909.00
817.21	930.00
817.46	905.00
817.71	926.00
817.96	913.00
818.20	908.00
818.45	884.00
818.70	930.00
818.95	884.00
819.20	896.00
819.45	910.00
819.70	916.00
819.94	886.00
820.19	915.00
820.44	906.00
820.69	950.00
820.94	922.00
821.19	932.00
821.44	989.00
821.68	1001.00
821.93	914.00
822.18	929.00
822.43	953.00
822.68	944.00
822.93	913.00
823.17	928.00
823.42	942.00
823.67	930.00
823.92	910.00
824.17	924.00
824.42	925.00
824.67	936.00
824.91	922.00
825.16	908.00
825.41	904.00
825.66	907.00
825.91	886.00
826.16	902.00
826.40	927.00
826.65	921.00
826.90	892.00
827.15	908.00
827.40	917.00
827.65	934.00
827.89	867.00
828.14	902.00
828.39	920.00
828.64	926.00
828.89	889.00
829.13	915.00
829.38	905.00
829.63	919.00
829.88	901.00
830.13	912.00
830.38	896.00
830.62	914.00
830.87	893.00
831.12	912.00
831.37	939.00
831.62	971.00
831.86	892.00
832.11	906.00
832.36	900.00
832.61	932.00
832.86	905.00
833.10	923.00
833.35	919.00
833.60	946.00
833.85	911.00
834.10	938.00
834.35	940.00
834.59	946.00
834.84	904.00
835.09	924.00
835.34	908.00
835.59	930.00
835.83	915.00
836.08	927.00
836.33	948.00
836.58	940.00
836.83	918.00
837.07	945.00
837.32	933.00
837.57	912.00
837.82	903.00
838.06	926.00
838.31	963.00
838.56	955.00
838.81	896.00
839.06	909.00
839.30	923.00
839.55	947.00
839.80	910.00
840.05	926.00
840.30	953.00
840.54	960.00
840.79	913.00
841.04	930.00
841.29	944.00
841.53	942.00
841.78	917.00
842.03	894.00
842.28	891.00
842.53	907.00
842.77	903.00
843.02	922.00
843.27	918.00
843.52	924.00
843.76	902.00
844.01	934.00
844.26	920.00
844.51	940.00
844.75	912.00
845.00	919.00
845.25	923.00
845.50	932.00
845.75	913.00
845.99	937.00
846.24	940.00
846.49	942.00
846.74	894.00
846.98	894.00
847.23	909.00
847.48	945.00
847.73	908.00
847.97	934.00
848.22	952.00
848.47	937.00
848.72	907.00
848.96	910.00
849.21	924.00
849.46	916.00
849.71	874.00
849.95	901.00
850.20	898.00
850.45	937.00
850.70	887.00
850.94	926.00
851.19	913.00
851.44	909.00
851.69	880.00
851.93	903.00
852.18	930.00
852.43	926.00
852.68	912.00
852.92	936.00
853.17	962.00
853.42	944.00
853.66	925.00
853.91	946.00
854.16	924.00
854.41	964.00
854.65	904.00
854.90	926.00
855.15	922.00
855.40	924.00
855.64	903.00
855.89	916.00
856.14	916.00
856.39	923.00
856.63	894.00
856.88	900.00
857.13	900.00
857.37	916.00
857.62	872.00
857.87	890.00
858.12	915.00
858.36	945.00
858.61	879.00
858.86	907.00
859.10	935.00
859.35	944.00
859.60	888.00
859.85	882.00
860.09	898.00
860.34	933.00
860.59	922.00
860.83	919.00
861.08	921.00
861.33	954.00
861.58	909.00
861.82	918.00
862.07	937.00
862.32	944.00
862.56	890.00
862.81	908.00
863.06	904.00
863.30	916.00
863.55	904.00
863.80	927.00
864.05	925.00
864.29	911.00
864.54	919.00
864.79	923.00
865.03	921.00
865.28	937.00
865.53	908.00
865.77	887.00
866.02	924.00
866.27	941.00
866.51	919.00
866.76	887.00
867.01	897.00
867.26	934.00
867.50	897.00
867.75	897.00
868.00	934.00
868.24	933.00
868.49	899.00
868.74	917.00
868.98	906.00
869.23	921.00
869.48	919.00
869.72	911.00
869.97	904.00
870.22	942.00
870.46	907.00
870.71	913.00
870.96	925.00
871.20	942.00
871.45	895.00
871.70	917.00
871.94	956.00
872.19	951.00
872.44	914.00
872.68	923.00
872.93	937.00
873.18	949.00
873.42	907.00
873.67	920.00
873.92	948.00
874.16	938.00
874.41	900.00
874.66	919.00
874.90	933.00
875.15	957.00
875.40	922.00
875.64	914.00
875.89	907.00
876.14	923.00
876.38	919.00
876.63	929.00
876.88	927.00
877.12	917.00
877.37	888.00
877.62	927.00
877.86	926.00
878.11	929.00
878.36	884.00
878.60	900.00
878.85	917.00
879.09	925.00
879.34	910.00
879.59	921.00
879.83	947.00
880.08	967.00
880.33	914.00
880.57	929.00
880.82	932.00
881.07	925.00
881.31	901.00
881.56	911.00
881.80	910.00
882.05	926.00
882.30	878.00
882.54	895.00
882.79	937.00
883.04	977.00
883.28	940.00
883.53	908.00
883.77	935.00
884.02	951.00
884.27	911.00
884.51	903.00
884.76	904.00
885.01	947.00
885.25	885.00
885.50	912.00
885.74	906.00
885.99	949.00
886.24	904.00
886.48	908.00
886.73	948.00
886.98	958.00
887.22	920.00
887.47	907.00
887.71	921.00
887.96	925.00
888.21	909.00
888.45	902.00
888.70	904.00
888.94	939.00
889.19	888.00
889.44	910.00
889.68	933.00
889.93	964.00
890.17	913.00
890.42	900.00
890.67	934.00
890.91	1014.00
891.16	900.00
891.40	894.00
891.65	913.00
891.90	936.00
892.14	887.00
892.39	909.00
892.63	922.00
892.88	949.00
893.13	906.00
893.37	902.00
893.62	922.00
893.86	956.00
894.11	891.00
894.36	913.00
894.60	910.00
894.85	916.00
895.09	905.00
895.34	942.00
895.59	921.00
895.83	930.00
896.08	897.00
896.32	896.00
896.57	916.00
896.81	933.00
897.06	897.00
897.31	910.00
897.55	930.00
897.80	920.00
898.04	886.00
898.29	897.00
898.53	927.00
898.78	943.00
899.03	913.00
899.27	914.00
899.52	928.00
899.76	948.00
900.01	914.00
900.25	926.00
900.50	934.00
900.75	948.00
900.99	928.00
901.24	995.00
901.48	936.00
901.73	935.00
901.97	900.00
902.22	935.00
902.47	928.00
902.71	931.00
902.96	879.00
903.20	901.00
903.45	926.00
903.69	943.00
903.94	928.00
904.18	892.00
904.43	923.00
904.68	893.00
904.92	874.00
905.17	907.00
905.41	926.00
905.66	936.00
905.90	940.00
906.15	926.00
906.39	932.00
906.64	939.00
906.88	888.00
907.13	904.00
907.38	949.00
907.62	968.00
907.87	895.00
908.11	927.00
908.36	904.00
908.60	929.00
908.85	871.00
909.09	910.00
909.34	925.00
909.58	938.00
909.83	893.00
910.07	910.00
910.32	975.00
910.56	996.00
910.81	905.00
911.06	955.00
911.30	953.00
911.55	923.00
911.79	894.00
912.04	906.00
912.28	913.00
912.53	949.00
912.77	917.00
913.02	920.00
913.26	921.00
913.51	943.00
913.75	904.00
914.00	908.00
914.24	933.00
914.49	936.00
914.73	891.00
914.98	925.00
915.22	943.00
915.47	925.00
915.71	886.00
915.96	918.00
916.20	924.00
916.45	924.00
916.69	889.00
916.94	904.00
917.18	932.00
917.43	934.00
917.67	900.00
917.92	889.00
918.16	923.00
918.41	940.00
918.65	900.00
918.90	886.00
919.14	878.00
919.39	924.00
919.63	903.00
919.88	889.00
920.12	940.00
920.37	940.00
920.61	885.00
920.86	923.00
921.10	948.00
921.35	926.00
921.59	888.00
921.84	922.00
922.08	938.00
922.33	961.00
922.57	896.00
922.82	890.00
923.06	924.00
923.31	941.00
923.55	886.00
923.80	907.00
924.04	909.00
924.29	937.00
924.53	906.00
924.78	899.00
925.02	904.00
925.27	925.00
925.51	903.00
925.76	924.00
926.00	923.00
926.25	921.00
926.49	904.00
926.73	935.00
926.98	915.00
927.22	939.00
927.47	910.00
927.71	913.00
927.96	933.00
928.20	924.00
928.45	919.00
928.69	947.00
928.94	939.00
929.18	918.00
929.43	924.00
929.67	933.00
929.91	943.00
930.16	926.00
930.40	874.00
930.65	895.00
930.89	922.00
931.14	960.00
931.38	921.00
931.63	928.00
931.87	936.00
932.12	941.00
932.36	905.00
932.60	906.00
932.85	928.00
933.09	918.00
933.34	868.00
933.58	921.00
933.83	921.00
934.07	937.00
934.32	910.00
934.56	936.00
934.80	969.00
935.05	968.00
935.29	924.00
935.54	949.00
935.78	923.00
936.03	931.00
936.27	885.00
936.52	899.00
936.76	921.00
937.00	941.00
937.25	891.00
937.49	920.00
937.74	944.00
937.98	934.00
938.23	895.00
938.47	916.00
938.71	921.00
938.96	931.00
939.20	888.00
939.45	883.00
939.69	909.00
939.94	930.00
940.18	903.00
940.42	917.00
940.67	928.00
940.91	913.00
941.16	883.00
941.40	892.00
941.64	924.00
941.89	951.00
942.13	902.00
942.38	912.00
942.62	986.00
942.87	974.00
943.11	914.00
943.35	908.00
943.60	944.00
943.84	958.00
944.09	923.00
944.33	944.00
944.57	948.00
944.82	917.00
945.06	895.00
945.31	918.00
945.55	924.00
945.79	940.00
946.04	910.00
946.28	897.00
946.53	918.00
946.77	930.00
947.01	870.00
947.26	939.00
947.50	929.00
947.75	937.00
947.99	894.00
948.23	914.00
948.48	905.00
948.72	910.00
948.97	917.00
949.21	930.00
949.45	920.00
949.70	946.00
949.94	924.00
950.18	924.00
950.43	924.00
950.67	935.00
950.92	890.00
951.16	902.00
951.40	910.00
951.65	934.00
951.89	909.00
952.13	921.00
952.38	929.00
952.62	932.00
952.87	896.00
953.11	947.00
953.35	955.00
953.60	941.00
953.84	874.00
954.08	884.00
954.33	904.00
954.57	924.00
954.82	921.00
955.06	898.00
955.30	906.00
955.55	904.00
955.79	901.00
956.03	919.00
956.28	913.00
956.52	919.00
956.76	914.00
957.01	938.00
957.25	920.00
957.50	930.00
957.74	898.00
957.98	912.00
958.23	921.00
958.47	921.00
958.71	913.00
958.96	928.00
959.20	933.00
959.44	924.00
959.69	898.00
959.93	930.00
960.17	929.00
960.42	944.00
960.66	917.00
960.90	923.00
961.15	914.00
961.39	926.00
961.64	898.00
961.88	889.00
962.12	939.00
962.37	936.00
962.61	911.00
962.85	912.00
963.10	932.00
963.34	908.00
963.58	875.00
963.83	910.00
964.07	930.00
964.31	956.00
964.56	924.00
964.80	900.00
965.04	924.00
965.29	926.00
965.53	886.00
965.77	912.00
966.02	884.00
966.26	913.00
966.50	890.00
966.74	916.00
966.99	945.00
967.23	931.00
967.47	897.00
967.72	907.00
967.96	943.00
968.20	923.00
968.45	888.00
968.69	901.00
968.93	911.00
969.18	920.00
969.42	926.00
969.66	917.00
969.91	930.00
970.15	943.00
970.39	905.00
970.64	928.00
970.88	928.00
971.12	940.00
971.36	911.00
971.61	897.00
971.85	916.00
972.09	917.00
972.34	900.00
972.58	921.00
972.82	928.00
973.07	949.00
973.31	875.00
973.55	902.00
973.79	949.00
974.04	966.00
974.28	923.00
974.52	903.00
974.77	905.00
975.01	953.00
975.25	917.00
975.50	920.00
975.74	946.00
975.98	942.00
976.22	897.00
976.47	909.00
976.71	925.00
976.95	936.00
977.20	943.00
977.44	924.00
977.68	919.00
977.92	945.00
978.17	893.00
978.41	906.00
978.65	928.00
978.90	919.00
979.14	938.00
979.38	938.00
979.62	908.00
979.87	908.00
980.11	866.00
980.35	900.00
980.59	925.00
980.84	928.00
981.08	897.00
981.32	894.00
981.57	939.00
981.81	935.00
982.05	907.00
982.29	909.00
982.54	916.00
982.78	937.00
983.02	904.00
983.26	928.00
983.51	950.00
983.75	950.00
983.99	880.00
984.23	924.00
984.48	919.00
984.72	926.00
984.96	885.00
985.20	882.00
985.45	953.00
985.69	938.00
985.93	903.00
986.17	933.00
986.42	947.00
986.66	936.00
986.90	866.00
987.14	884.00
987.39	904.00
987.63	908.00
987.87	908.00
988.11	904.00
988.36	929.00
988.60	944.00
988.84	923.00
989.08	887.00
989.33	936.00
989.57	945.00
989.81	873.00
990.05	876.00
990.30	902.00
990.54	899.00
990.78	886.00
991.02	888.00
991.27	929.00
991.51	931.00
991.75	881.00
991.99	923.00
992.23	912.00
992.48	896.00
992.72	882.00
992.96	897.00
993.20	906.00
993.45	937.00
993.69	936.00
993.93	902.00
994.17	931.00
994.41	928.00
994.66	884.00
994.90	909.00
995.14	954.00
995.38	928.00
995.63	898.00
995.87	913.00
996.11	955.00
996.35	945.00
996.59	890.00
996.84	887.00
997.08	907.00
997.32	899.00
997.56	911.00
997.80	882.00
998.05	884.00
998.29	910.00
998.53	899.00
998.77	906.00
999.01	932.00
999.26	925.00
999.50	897.00
999.74	890.00
999.98	928.00
1000.22	946.00
1000.47	888.00
1000.71	885.00
1000.95	935.00
1001.19	956.00
1001.43	913.00
1001.68	929.00
1001.92	914.00
1002.16	896.00
1002.40	877.00
1002.64	901.00
1002.89	920.00
1003.13	928.00
1003.37	925.00
1003.61	894.00
1003.85	917.00
1004.10	915.00
1004.34	914.00
1004.58	912.00
1004.82	935.00
1005.06	929.00
1005.30	894.00
1005.55	877.00
1005.79	925.00
1006.03	920.00
1006.27	893.00
1006.51	888.00
1006.76	904.00
1007.00	923.00
1007.24	896.00
1007.48	916.00
1007.72	945.00
1007.96	914.00
1008.21	911.00
1008.45	922.00
1008.69	923.00
1008.93	955.00
1009.17	918.00
1009.41	930.00
1009.66	939.00
1009.90	920.00
1010.14	898.00
1010.38	926.00
1010.62	941.00
1010.86	951.00
1011.10	910.00
1011.35	894.00
1011.59	929.00
1011.83	903.00
1012.07	877.00
1012.31	912.00
1012.55	905.00
1012.80	940.00
1013.04	930.00
1013.28	939.00
1013.52	927.00
1013.76	937.00
1014.00	889.00
1014.24	912.00
1014.49	932.00
1014.73	953.00
1014.97	937.00
1015.21	923.00
1015.45	958.00
1015.69	925.00
1015.93	915.00
1016.18	911.00
1016.42	953.00
1016.66	938.00
1016.90	899.00
1017.14	901.00
1017.38	906.00
1017.62	925.00
1017.87	904.00
1018.11	905.00
1018.35	918.00
1018.59	938.00
1018.83	885.00
1019.07	894.00
1019.31	933.00
1019.55	944.00
1019.80	903.00
1020.04	918.00
1020.28	924.00
1020.52	924.00
1020.76	888.00
1021.00	886.00
1021.24	908.00
1021.48	901.00
1021.73	907.00
1021.97	914.00
1022.21	916.00
1022.45	935.00
1022.69	912.00
1022.93	898.00
1023.17	914.00
1023.41	952.00
1023.65	909.00
1023.90	950.00
1024.14	935.00
1024.38	904.00
1024.62	866.00
1024.86	905.00
1025.10	928.00
1025.34	932.00
1025.58	886.00
1025.82	903.00
1026.07	937.00
1026.31	928.00
1026.55	899.00
1026.79	890.00
1027.03	906.00
1027.27	928.00
1027.51	870.00
1027.75	863.00
1027.99	902.00
1028.23	956.00
1028.47	918.00
1028.72	904.00
1028.96	926.00
1029.20	940.00
1029.44	915.00
1029.68	908.00
1029.92	904.00
1030.16	938.00
1030.40	878.00
1030.64	897.00
1030.88	893.00
1031.12	905.00
1031.37	875.00
1031.61	901.00
1031.85	931.00
1032.09	947.00
1032.33	904.00
1032.57	956.00
1032.81	926.00
1033.05	946.00
1033.29	922.00
1033.53	908.00
1033.77	975.00
1034.01	965.00
1034.25	940.00
1034.50	922.00
1034.74	936.00
1034.98	957.00
1035.22	912.00
1035.46	922.00
1035.70	959.00
1035.94	949.00
1036.18	907.00
1036.42	906.00
1036.66	902.00
1036.90	920.00
1037.14	881.00
1037.38	896.00
1037.62	936.00
1037.86	921.00
1038.10	904.00
1038.35	889.00
1038.59	932.00
1038.83	954.00
1039.07	927.00
1039.31	926.00
1039.55	910.00
1039.79	913.00
1040.03	879.00
1040.27	884.00
1040.51	940.00
1040.75	951.00
1040.99	916.00
1041.23	921.00
1041.47	922.00
1041.71	958.00
1041.95	904.00
1042.19	897.00
1042.43	948.00
1042.67	948.00
1042.91	910.00
1043.15	905.00
1043.39	963.00
1043.64	936.00
1043.88	886.00
1044.12	913.00
1044.36	976.00
1044.60	955.00
1044.84	912.00
1045.08	931.00
1045.32	921.00
1045.56	934.00
1045.80	916.00
1046.04	922.00
1046.28	962.00
1046.52	947.00
1046.76	894.00
1047.00	892.00
1047.24	948.00
1047.48	939.00
1047.72	898.00
1047.96	900.00
1048.20	940.00
1048.44	923.00
1048.68	894.00
1048.92	905.00
1049.16	933.00
1049.40	947.00
1049.64	900.00
1049.88	923.00
1050.12	941.00
1050.36	943.00
1050.60	914.00
1050.84	917.00
1051.08	923.00
1051.32	915.00
1051.56	911.00
1051.80	908.00
1052.04	921.00
1052.28	956.00
1052.52	907.00
1052.76	875.00
1053.00	896.00
1053.24	930.00
1053.48	899.00
1053.72	901.00
1053.96	902.00
1054.20	917.00
1054.44	914.00
1054.68	924.00
1054.92	936.00
1055.16	909.00
1055.40	909.00
1055.64	926.00
1055.88	948.00
1056.12	948.00
1056.36	889.00
1056.60	901.00
1056.84	948.00
1057.08	928.00
1057.32	903.00
1057.56	906.00
1057.80	922.00
1058.04	942.00
1058.28	889.00
1058.52	927.00
1058.76	942.00
1059.00	950.00
1059.24	880.00
1059.48	889.00
1059.72	921.00
1059.96	919.00
1060.20	915.00
1060.44	925.00
1060.68	951.00
1060.92	921.00
1061.16	870.00
1061.40	912.00
1061.64	925.00
1061.88	921.00
1062.11	905.00
1062.35	905.00
1062.59	908.00
1062.83	944.00
1063.07	908.00
1063.31	873.00
1063.55	909.00
1063.79	949.00
1064.03	900.00
1064.27	892.00
1064.51	920.00
1064.75	940.00
1064.99	899.00
1065.23	916.00
1065.47	905.00
1065.71	931.00
1065.95	893.00
1066.19	906.00
1066.43	938.00
1066.67	946.00
1066.91	923.00
1067.15	909.00
1067.38	910.00
1067.62	924.00
1067.86	890.00
1068.10	929.00
1068.34	970.00
1068.58	974.00
1068.82	914.00
1069.06	885.00
1069.30	929.00
1069.54	946.00
1069.78	924.00
1070.02	900.00
1070.26	937.00
1070.50	964.00
1070.74	907.00
1070.98	936.00
1071.21	922.00
1071.45	924.00
1071.69	890.00
1071.93	912.00
1072.17	917.00
1072.41	943.00
1072.65	919.00
1072.89	937.00
1073.13	923.00
1073.37	920.00
1073.61	884.00
1073.85	909.00
1074.09	918.00
1074.32	920.00
1074.56	900.00
1074.80	994.00
1075.04	1197.00
1075.28	1046.00
1075.52	918.00
1075.76	918.00
1076.00	950.00
1076.24	937.00
1076.48	920.00
1076.72	917.00
1076.96	944.00
1077.19	933.00
1077.43	902.00
1077.67	936.00
1077.91	922.00
1078.15	917.00
1078.39	920.00
1078.63	905.00
1078.87	926.00
1079.11	933.00
1079.35	905.00
1079.58	876.00
1079.82	910.00
1080.06	927.00
1080.30	890.00
1080.54	926.00
1080.78	965.00
1081.02	931.00
1081.26	900.00
1081.50	927.00
1081.74	939.00
1081.97	948.00
1082.21	916.00
1082.45	928.00
1082.69	933.00
1082.93	915.00
1083.17	921.00
1083.41	904.00
1083.65	933.00
1083.88	952.00
1084.12	916.00
1084.36	919.00
1084.60	940.00
1084.84	957.00
1085.08	893.00
1085.32	912.00
1085.56	952.00
1085.80	938.00
1086.03	906.00
1086.27	885.00
1086.51	917.00
1086.75	961.00
1086.99	892.00
1087.23	874.00
1087.47	918.00
1087.70	915.00
1087.94	921.00
1088.18	950.00
1088.42	991.00
1088.66	934.00
1088.90	880.00
1089.14	892.00
1089.38	918.00
1089.61	930.00
1089.85	911.00
1090.09	900.00
1090.33	953.00
1090.57	950.00
1090.81	864.00
1091.05	896.00
1091.28	947.00
1091.52	936.00
1091.76	898.00
1092.00	920.00
1092.24	937.00
1092.48	944.00
1092.71	886.00
1092.95	912.00
1093.19	947.00
1093.43	930.00
1093.67	883.00
1093.91	903.00
1094.15	926.00
1094.38	924.00
1094.62	885.00
1094.86	885.00
1095.10	898.00
1095.34	914.00
1095.58	900.00
1095.81	916.00
1096.05	932.00
1096.29	952.00
1096.53	901.00
1096.77	908.00
1097.01	910.00
1097.24	939.00
1097.48	893.00
1097.72	918.00
1097.96	923.00
1098.20	925.00
1098.44	886.00
1098.67	875.00
1098.91	939.00
1099.15	938.00
1099.39	881.00
1099.63	907.00
1099.86	932.00
1100.10	925.00
1100.34	911.00
1100.58	912.00
1100.82	941.00
1101.06	928.00
1101.29	878.00
1101.53	918.00
1101.77	934.00
1102.01	913.00
1102.25	898.00
1102.48	922.00
1102.72	960.00
1102.96	930.00
1103.20	876.00
1103.44	901.00
1103.67	933.00
1103.91	946.00
1104.15	891.00
1104.39	904.00
1104.63	930.00
1104.86	905.00
1105.10	889.00
1105.34	921.00
1105.58	916.00
1105.82	923.00
1106.05	907.00
1106.29	929.00
1106.53	918.00
1106.77	956.00
1107.01	903.00
1107.24	929.00
1107.48	968.00
1107.72	937.00
1107.96	858.00
1108.20	906.00
1108.43	933.00
1108.67	909.00
1108.91	914.00
1109.15	909.00
1109.39	916.00
1109.62	932.00
1109.86	891.00
1110.10	906.00
1110.34	983.00
1110.57	992.00
1110.81	921.00
1111.05	917.00
1111.29	959.00
1111.53	966.00
1111.76	899.00
1112.00	934.00
1112.24	944.00
1112.48	928.00
1112.71	883.00
1112.95	926.00
1113.19	941.00
1113.43	923.00
1113.66	870.00
1113.90	921.00
1114.14	945.00
1114.38	945.00
1114.62	889.00
1114.85	919.00
1115.09	938.00
1115.33	974.00
1115.57	923.00
1115.80	906.00
1116.04	925.00
1116.28	928.00
1116.52	909.00
1116.75	903.00
1116.99	940.00
1117.23	948.00
1117.47	917.00
1117.70	921.00
1117.94	990.00
1118.18	933.00
1118.42	906.00
1118.65	953.00
1118.89	963.00
1119.13	932.00
1119.37	886.00
1119.60	912.00
1119.84	947.00
>>>>>End Processed Spectral Data<<<<<
